Time,AccelX,AccelY,AccelZ,VelX,VelY,VelZ,PosX,PosY,PosZ,Roll,Pitch,Yaw
0.00046634674072265625,0,0,0,0.0,0.0,0.0,0.0,0.0,0.0,89.21498256892693,271.33006545170406,-65.508064587327
0.016328096389770508,0,0,0,0.0,0.0,0.0,0.0,0.0,0.0,268.42897355672335,92.66172780298851,23.705926400469394
0.032898902893066406,0,0,0,0.0,0.0,0.0,0.0,0.0,0.0,267.6445032122158,93.99234034125797,22.921456055961784
0.04918956756591797,0,0,0,0.0,0.0,0.0,0.0,0.0,0.0,266.85901197684245,95.32294888860508,22.13596482058847
0.06547236442565918,0,0,0,0.0,0.0,0.0,0.0,0.0,0.0,266.0739981794659,96.65206364403811,156.3509510232119
0.08073925971984863,0,0,0,0.0,0.0,0.0,0.0,0.0,0.0,265.28904536467496,97.98219371202421,155.56599820842098
0.09797072410583496,0,0,0,0.0,0.0,0.0,0.0,0.0,0.0,264.50414678206585,99.31237801219217,154.78109962581186
0.11706852912902832,0,0,0,0.0,0.0,0.0,0.0,0.0,0.0,263.7181225207115,100.64303507372563,153.99507536445753
0.13407373428344727,0,0,0,0.0,0.0,0.0,0.0,0.0,0.0,262.9331291591851,101.97212903349573,153.21008200293113
0.15002036094665527,0,0,0,0.0,0.0,0.0,0.0,0.0,0.0,262.1476379403915,103.30172069747923,152.42459078413754
0.16617703437805176,0,0,0,0.0,0.0,0.0,0.0,0.0,0.0,261.3626381608117,104.630821188305,106.6395910045577
0.18191194534301758,0,0,0,0.0,0.0,0.0,0.0,0.0,0.0,260.57714675652005,105.95935705363036,105.85409960026607
0.19882798194885254,0,0,0,0.0,0.0,0.0,0.0,0.0,0.0,259.7916557122364,107.28943544483903,105.0686085559824
0.21439290046691895,0,0,0,0.0,0.0,0.0,0.0,0.0,0.0,259.00566710488454,108.6205195915278,14.282619948630582
0.23029780387878418,0,0,0,0.0,0.0,0.0,0.0,0.0,0.0,258.2201753957859,109.94898529540237,13.49712823953189
0.24844026565551758,0,0,0,0.0,0.0,0.0,0.0,0.0,0.0,257.43624409932204,111.27753681535175,12.713196943068027
0.2652416229248047,0,0,0,0.0,0.0,0.0,0.0,0.0,0.0,256.65187974421724,112.6076916618984,30.36378141088528
0.2832198143005371,0,0,0,0.0,0.0,0.0,0.0,0.0,0.0,255.8669394553394,113.93507765273553,29.578841122007475
0.3009603023529053,0,0,0,0.0,0.0,0.0,0.0,0.0,0.0,255.08250146845884,115.26414243694961,28.794403135126913
0.31759095191955566,0,0,0,0.0,0.0,0.0,0.0,0.0,0.0,254.2970094565036,116.59373330777144,144.5739623002496
0.3368813991546631,0,0,0,0.0,0.0,0.0,0.0,0.0,0.0,253.51401961038204,117.92207272702106,143.7909724541281
0.3568730354309082,0,0,0,0.0,0.0,0.0,0.0,0.0,0.0,252.72852881518452,119.25074879551855,98.00548165893056
0.371596097946167,0,0,0,0.0,0.0,0.0,0.0,0.0,0.0,251.94360696805506,120.58090983116617,97.22055981180111
0.3897886276245117,0,0,0,0.0,0.0,0.0,0.0,0.0,0.0,251.15811490063896,121.91291582673344,96.43506774438501
0.4090855121612549,0,0,0,0.0,0.0,0.0,0.0,0.0,0.0,250.37212101733653,123.24401561870191,170.12496286432832
0.4251878261566162,0,0,0,0.0,0.0,0.0,0.0,0.0,0.0,249.58662978222327,124.57309884619639,169.33947162921504
0.4414379596710205,0,0,0,0.0,0.0,0.0,0.0,0.0,0.0,248.8005584130933,125.90095133262469,168.55340026008514
0.460066556930542,0,0,0,0.0,0.0,0.0,0.0,0.0,0.0,248.01452336685418,127.22999916916262,93.29147621060022
0.4772670269012451,0,0,0,0.0,0.0,0.0,0.0,0.0,0.0,247.2285160306292,128.55907471571473,92.50546887437525
0.49375295639038086,0,0,0,0.0,0.0,0.0,0.0,0.0,0.0,246.44354224822766,129.89021888054913,91.7204950919737
0.5103116035461426,0,0,0,0.0,0.0,0.0,0.0,0.0,0.0,245.65903628214164,131.22030323190634,90.93598912588769
0.5260782241821289,0,0,0,0.0,0.0,0.0,0.0,0.0,0.0,244.87499043192048,132.55085854717376,90.15194327566653
0.5415546894073486,0,0,0,0.0,0.0,0.0,0.0,0.0,0.0,244.08949881605844,133.88210596639675,89.36645165980448
0.5591967105865479,0,0,0,0.0,0.0,0.0,0.0,0.0,0.0,243.30354372827898,135.21401919075285,88.58049657202503
0.5740272998809814,0,0,0,0.0,0.0,0.0,0.0,0.0,0.0,242.51754016488482,136.5420739211932,87.79449300863087
0.5904867649078369,0,0,0,0.0,0.0,0.0,0.0,0.0,0.0,241.73261938866187,137.8710940176546,87.00957223240792
0.6086914539337158,0,0,0,0.0,0.0,0.0,0.0,0.0,0.0,240.94712892447396,139.20026635760854,29.914149294199774
0.6221623420715332,0,0,0,0.0,0.0,0.0,0.0,0.0,0.0,240.16218130911864,140.53148948430325,29.129201678844453
0.6396706104278564,0,0,0,0.0,0.0,0.0,0.0,0.0,0.0,239.37668943025642,141.86282705332164,28.343709799982236
0.6582114696502686,0,0,0,0.0,0.0,0.0,0.0,0.0,0.0,238.59076014352894,143.19241930975443,128.867712987275
0.6722884178161621,0,0,0,0.0,0.0,0.0,0.0,0.0,0.0,237.80418051477147,144.52255468795963,128.0811333585175
0.689673900604248,0,0,0,0.0,0.0,0.0,0.0,0.0,0.0,237.01810525256116,145.8521456815365,127.29505809630723
0.7083978652954102,0,0,0,0.0,0.0,0.0,0.0,0.0,0.0,236.23302799105022,147.1809118763686,126.50998083479624
0.7215642929077148,0,0,0,0.0,0.0,0.0,0.0,0.0,0.0,235.44866808678822,148.51106893858386,125.72562093053426
0.7397093772888184,0,0,0,0.0,0.0,0.0,0.0,0.0,0.0,234.6637606415047,149.8412443760774,124.94071348525074
0.7583832740783691,0,0,0,0.0,0.0,0.0,0.0,0.0,0.0,233.87870388969947,151.17040284223526,79.15565673344551
0.7722773551940918,0,0,0,0.0,0.0,0.0,0.0,0.0,0.0,233.09374968642283,152.49838238686135,78.37070253016887
0.7894680500030518,0,0,0,0.0,0.0,0.0,0.0,0.0,0.0,232.3088138510389,153.82741780762947,77.58576669478495
0.807314395904541,0,0,0,0.0,0.0,0.0,0.0,0.0,0.0,231.52417369204295,155.15488430758418,34.290679457788144
0.8208839893341064,0,0,0,0.0,0.0,0.0,0.0,0.0,0.0,230.73868177085365,156.48564934656358,33.50518753659884
0.8398854732513428,0,0,0,0.0,0.0,0.0,0.0,0.0,0.0,229.954472957868,157.81523983032977,32.7209787236132
0.8604493141174316,0,0,0,0.0,0.0,0.0,0.0,0.0,0.0,229.16898135468458,159.1442805120173,34.64036310616544
0.8779761791229248,0,0,0,0.0,0.0,0.0,0.0,0.0,0.0,228.38293002214203,160.47219276152876,33.8543117736229
0.8959207534790039,0,0,0,0.0,0.0,0.0,0.0,0.0,0.0,227.59743866160795,161.8007386990931,33.068820413088815
0.9126524925231934,0,0,0,0.0,0.0,0.0,0.0,0.0,0.0,226.81250903009615,163.12920573495768,117.0894618738422
0.9312260150909424,0,0,0,0.0,0.0,0.0,0.0,0.0,0.0,226.02764657027086,164.45501731409414,116.30459941401693
0.9509491920471191,0,0,0,0.0,0.0,0.0,0.0,0.0,0.0,225.24272105251708,165.78177734847569,115.51967389626316
0.9689736366271973,0,0,0,0.0,0.0,0.0,0.0,0.0,0.0,224.4578215540983,167.10781344165048,27.224327319843496
0.987959623336792,0,0,0,0.0,0.0,0.0,0.0,0.0,0.0,223.67233005533473,168.43794345793765,26.43883582107992
1.0051660537719727,0,0,0,0.0,0.0,0.0,0.0,0.0,0.0,222.88732253568588,169.76753532308862,25.653828301431076
1.0206589698791504,0,0,0,0.0,0.0,0.0,0.0,0.0,0.0,222.10304994212316,171.0989553752696,112.38000278586924
1.0401883125305176,0,0,0,0.0,0.0,0.0,0.0,0.0,0.0,221.31755791378322,172.42854622970677,111.59451075752929
1.059290885925293,0,0,0,0.0,0.0,0.0,0.0,0.0,0.0,220.5320672872439,173.75945453414943,-24.19097986901005
1.07322096824646,0,0,0,0.0,0.0,0.0,0.0,0.0,0.0,219.7465757730709,175.08850550469222,-24.976471383183053
1.090597152709961,0,0,0,0.0,0.0,0.0,0.0,0.0,0.0,218.9616648418021,176.4175155828599,-25.76138231445185
1.1091463565826416,0,0,0,0.0,0.0,0.0,0.0,0.0,0.0,218.17701720539029,177.7454223107868,129.01001526871977
1.1226437091827393,0,0,0,0.0,0.0,0.0,0.0,0.0,0.0,217.39207266981433,179.07391954840216,128.2250707331438
1.1401104927062988,0,0,0,0.0,0.0,0.0,0.0,0.0,0.0,216.60773083597402,180.40006066848304,127.44072889930351
1.1586344242095947,0,0,0,0.0,0.0,0.0,0.0,0.0,0.0,215.82224025696328,181.72921973588882,-28.900806899290686
1.1723742485046387,0,0,0,0.0,0.0,0.0,0.0,0.0,0.0,215.03619589889675,183.05770552437667,-29.686851257357205
1.190075159072876,0,0,0,0.0,0.0,0.0,0.0,0.0,0.0,214.25124753759965,184.38621051447313,-30.471799618654302
1.207535743713379,0,0,0,0.0,0.0,0.0,0.0,0.0,0.0,213.46575713556948,185.71539003933987,-31.25729002068448
1.2206649780273438,0,0,0,0.0,0.0,0.0,0.0,0.0,0.0,212.67852974306658,187.04382404484568,-13.609568590265383
1.2392497062683105,0,0,0,0.0,0.0,0.0,0.0,0.0,0.0,211.89303827915293,188.3723461861842,-14.395060054179027
1.2563385963439941,0,0,0,0.0,0.0,0.0,0.0,0.0,0.0,211.1070955620497,189.70329425014103,-15.181002771282266
1.2708516120910645,0,0,0,0.0,0.0,0.0,0.0,0.0,0.0,210.32102372695257,191.0346252000026,-34.40202342930138
1.289332628250122,0,0,0,0.0,0.0,0.0,0.0,0.0,0.0,209.53553228130914,192.36528172743493,-35.18751487494481
1.3064336776733398,0,0,0,0.0,0.0,0.0,0.0,0.0,0.0,208.74915276534145,193.69398509424434,-35.973894390912506
1.3206150531768799,0,0,0,0.0,0.0,0.0,0.0,0.0,0.0,207.96197679688683,195.02245343216651,10.728482562632053
1.338653564453125,0,0,0,0.0,0.0,0.0,0.0,0.0,0.0,207.17599231559896,196.35105845620862,9.942498081344183
1.3548073768615723,0,0,0,0.0,0.0,0.0,0.0,0.0,0.0,206.38948332721006,197.6806500999063,9.155989092955224
1.3710455894470215,0,0,0,0.0,0.0,0.0,0.0,0.0,0.0,205.60340032393256,199.01142312073043,28.260488219638177
1.3899176120758057,0,0,0,0.0,0.0,0.0,0.0,0.0,0.0,204.8173678254815,200.3415554634696,27.474455721187155
1.4073481559753418,0,0,0,0.0,0.0,0.0,0.0,0.0,0.0,204.03094505725429,201.67207938545926,26.68803295295993
1.42252516746521,0,0,0,0.0,0.0,0.0,0.0,0.0,0.0,203.24545262020754,203.00102367958732,114.07845068353703
1.442775011062622,0,0,0,0.0,0.0,0.0,0.0,0.0,0.0,202.46056639364366,204.33243205352534,113.29356445697317
1.4621169567108154,0,0,0,0.0,0.0,0.0,0.0,0.0,0.0,201.6750747662733,205.66313004797627,46.95202761001934
1.4797189235687256,0,0,0,0.0,0.0,0.0,0.0,0.0,0.0,200.88958313799267,206.9921678286425,46.16653598173872
1.4974844455718994,0,0,0,0.0,0.0,0.0,0.0,0.0,0.0,200.1040914686203,208.3223172246444,45.381044312366356
1.5154964923858643,0,0,0,0.0,0.0,0.0,0.0,0.0,0.0,199.31859989619065,209.65136146121034,-45.40444726006331
1.532888412475586,0,0,0,0.0,0.0,0.0,0.0,0.0,0.0,198.53429481147558,210.98035892068697,-46.188752344778365
1.5518693923950195,0,0,0,0.0,0.0,0.0,0.0,0.0,0.0,197.7482574504319,212.30995024215258,-46.97478970582205
1.5693762302398682,0,0,0,0.0,0.0,0.0,0.0,0.0,0.0,196.9633144362817,213.6395415394313,87.24026728002775
1.5869348049163818,0,0,0,0.0,0.0,0.0,0.0,0.0,0.0,196.17782309336764,214.96704998636636,86.45477593711368
1.6036710739135742,0,0,0,0.0,0.0,0.0,0.0,0.0,0.0,195.39233164408316,216.29450957033163,85.6692844878292
1.6206512451171875,0,0,0,0.0,0.0,0.0,0.0,0.0,0.0,194.60627181139793,217.6235326204235,-50.11677534485601
1.6387529373168945,0,0,0,0.0,0.0,0.0,0.0,0.0,0.0,193.8203038794595,218.95312454253076,-50.90274327679448
1.6539466381072998,0,0,0,0.0,0.0,0.0,0.0,0.0,0.0,193.03431250636717,220.28121563295647,-51.6887346498868
1.6699557304382324,0,0,0,0.0,0.0,0.0,0.0,0.0,0.0,192.24831184399426,221.61029785336066,37.525264687740304
1.6862611770629883,0,0,0,0.0,0.0,0.0,0.0,0.0,0.0,191.46333442789617,222.94143105312722,36.74028727164222
1.7027499675750732,0,0,0,0.0,0.0,0.0,0.0,0.0,0.0,190.67784343510718,224.2710229431153,35.95479627885322
1.7180888652801514,0,0,0,0.0,0.0,0.0,0.0,0.0,0.0,189.89187057293563,225.6010966814199,-4.636747675583479
1.7335174083709717,0,0,0,0.0,0.0,0.0,0.0,0.0,0.0,189.10582125457367,226.93236086025877,-5.422796993945468
1.7514026165008545,0,0,0,0.0,0.0,0.0,0.0,0.0,0.0,188.31984867799488,228.26339746936694,-6.208769570524225
1.7668123245239258,0,0,0,0.0,0.0,0.0,0.0,0.0,0.0,187.53384774506043,229.59400847951372,32.81080058880647
1.7831523418426514,0,0,0,0.0,0.0,0.0,0.0,0.0,0.0,186.74722851579128,230.92416339991598,32.02418135953732
1.8011581897735596,0,0,0,0.0,0.0,0.0,0.0,0.0,0.0,185.96173748080523,232.25326976042473,31.23869032455127
1.8166821002960205,0,0,0,0.0,0.0,0.0,0.0,0.0,0.0,185.17522075490135,233.58081046408807,-12.058273479353431
1.833092212677002,0,0,0,0.0,0.0,0.0,0.0,0.0,0.0,184.38916435684493,234.91096629291448,-12.844329877409848
1.851207971572876,0,0,0,0.0,0.0,0.0,0.0,0.0,0.0,183.60416072938725,236.24007069936744,-13.629333504867532
1.866806983947754,0,0,0,0.0,0.0,0.0,0.0,0.0,0.0,182.81662300050732,237.5696623191383,-43.47147533282464
1.8832118511199951,0,0,0,0.0,0.0,0.0,0.0,0.0,0.0,182.0311312490165,238.8986858577441,-44.25696708431546
1.9013311862945557,0,0,0,0.0,0.0,0.0,0.0,0.0,0.0,181.24612697162937,240.22876446313407,-45.04197136170258
1.9169502258300781,0,0,0,0.0,0.0,0.0,0.0,0.0,0.0,180.4606357315097,241.55835610579146,-14.067982517009455
1.9332036972045898,0,0,0,0.0,0.0,0.0,0.0,0.0,0.0,179.67343707729358,242.88908515228886,-14.855181171225524
1.9516031742095947,0,0,0,0.0,0.0,0.0,0.0,0.0,0.0,178.887455572183,244.21867695697256,-15.641162676336137
1.9672071933746338,0,0,0,0.0,0.0,0.0,0.0,0.0,0.0,178.10092227871812,245.54878946947773,84.76741545649895
1.9838206768035889,0,0,0,0.0,0.0,0.0,0.0,0.0,0.0,177.31543049517313,246.8789518345265,83.98192367295397
2.002363681793213,0,0,0,0.0,0.0,0.0,0.0,0.0,0.0,176.5305099848304,248.20740038715905,83.19700316261122
2.020575523376465,0,0,0,0.0,0.0,0.0,0.0,0.0,0.0,175.74390227951966,249.53420150857227,-18.78471596899945
2.0383238792419434,0,0,0,0.0,0.0,0.0,0.0,0.0,0.0,174.9573176071596,250.86543248019353,-19.5713006413595
2.0560920238494873,0,0,0,0.0,0.0,0.0,0.0,0.0,0.0,174.17182634850963,252.19604633887968,-20.356791900009483
2.0724494457244873,0,0,0,0.0,0.0,0.0,0.0,0.0,0.0,173.38696114125526,253.52500988797286,63.6639139850013
2.095905065536499,0,0,0,0.0,0.0,0.0,0.0,0.0,0.0,172.60282048550877,254.8552760940236,62.87977332925482
2.116145133972168,0,0,0,0.0,0.0,0.0,0.0,0.0,0.0,171.81609950118334,256.18486681673306,-72.90694765507062
2.1357336044311523,0,0,0,0.0,0.0,0.0,0.0,0.0,0.0,171.0299827603811,257.51570643700137,-73.69306439587284
2.155733108520508,0,0,0,0.0,0.0,0.0,0.0,0.0,0.0,170.24449079836012,258.84648079307834,-74.47855635789384
2.1746699810028076,0,0,0,0.0,0.0,0.0,0.0,0.0,0.0,169.4583539683613,260.1754268458566,-75.26469318789265
2.1952733993530273,0,0,0,0.0,0.0,0.0,0.0,0.0,0.0,168.67351100641972,261.50241924487443,-76.04953614983422
2.2158100605010986,0,0,0,0.0,0.0,0.0,0.0,0.0,0.0,167.8880190407577,262.8331944317754,-29.34547519349711
2.232806921005249,0,0,0,0.0,0.0,0.0,0.0,0.0,0.0,167.1019543905734,264.16278551715845,-30.13153984368141
2.2516286373138428,0,0,0,0.0,0.0,0.0,0.0,0.0,0.0,166.31646320500428,265.4903662430587,-30.91703102925051
2.2676658630371094,0,0,0,0.0,0.0,0.0,0.0,0.0,0.0,165.52989734513224,266.8215692002689,-79.19314981112173
2.2848567962646484,0,0,0,0.0,0.0,0.0,0.0,0.0,0.0,164.7444055887,268.1505921676892,-79.97864156755396
2.303072214126587,0,0,0,0.0,0.0,0.0,0.0,0.0,0.0,163.95790429292745,269.48119393491913,-80.76514286332649
2.319091796875,0,0,0,0.0,0.0,0.0,0.0,0.0,0.0,163.17141705039776,270.8122798199723,8.44836989414381
2.33491587638855,0,0,0,0.0,0.0,0.0,0.0,0.0,0.0,162.3864894129877,272.1418709818823,7.663442256733731
2.352750778198242,0,0,0,0.0,0.0,0.0,0.0,0.0,0.0,161.6014797958392,93.47146286549855,6.878432639585242
2.368180513381958,0,0,0,0.0,0.0,0.0,0.0,0.0,0.0,160.81598859356032,94.80054988837061,6.092941437306365
2.3843069076538086,0,0,0,0.0,0.0,0.0,0.0,0.0,0.0,160.02936664044645,96.12957592967095,5.3063194841925
2.4023895263671875,0,0,0,0.0,0.0,0.0,0.0,0.0,0.0,159.2433912154556,97.46110538494472,4.520344059201648
2.417891263961792,0,0,0,0.0,0.0,0.0,0.0,0.0,0.0,158.4578998941927,98.7927701152135,69.29089795752219
2.434528112411499,0,0,0,0.0,0.0,0.0,0.0,0.0,0.0,157.6724081798925,100.12123462179368,68.50540624322198
2.4525251388549805,0,0,0,0.0,0.0,0.0,0.0,0.0,0.0,156.8869171657124,101.45130959348714,67.71991522904187
2.467987298965454,0,0,0,0.0,0.0,0.0,0.0,0.0,0.0,156.1014258854112,102.77987399931732,-38.427192363107935
2.48445200920105,0,0,0,0.0,0.0,0.0,0.0,0.0,0.0,155.31480312412364,104.11229271858609,-39.21381512439551
2.5025596618652344,0,0,0,0.0,0.0,0.0,0.0,0.0,0.0,154.52931207821445,105.44091107749436,-39.99930617030469
2.5181031227111816,0,0,0,0.0,0.0,0.0,0.0,0.0,0.0,153.74276181310168,106.77314965865109,-40.78585643541744
2.5379459857940674,0,0,0,0.0,0.0,0.0,0.0,0.0,0.0,152.95851711148705,108.09962144940647,-41.57010113703207
2.5551915168762207,0,0,0,0.0,0.0,0.0,0.0,0.0,0.0,152.17353507941274,109.42819467031654,-42.35508316910639
2.571384906768799,0,0,0,0.0,0.0,0.0,0.0,0.0,0.0,151.38751634202382,110.75831349009168,-3.335530814230111
2.588362216949463,0,0,0,0.0,0.0,0.0,0.0,0.0,0.0,150.60135011851662,112.08857724413582,-4.121697037737306
2.6099157333374023,0,0,0,0.0,0.0,0.0,0.0,0.0,0.0,149.81585934236952,113.41589021816121,-4.907187813884406
2.6245343685150146,0,0,0,0.0,0.0,0.0,0.0,0.0,0.0,149.02959591961817,114.7454795839329,-95.6934512366358
2.649214744567871,0,0,0,0.0,0.0,0.0,0.0,0.0,0.0,148.244103943033,116.0762572633058,-96.47894321322096
2.668201446533203,0,0,0,0.0,0.0,0.0,0.0,0.0,0.0,147.45744370643126,117.40760076059257,-7.265603449822692
2.689166784286499,0,0,0,0.0,0.0,0.0,0.0,0.0,0.0,146.67135291699302,118.73599408802174,-8.05169423926094
2.7082531452178955,0,0,0,0.0,0.0,0.0,0.0,0.0,0.0,145.88475634652005,120.06503287577827,-8.838290809733905
2.725938320159912,0,0,0,0.0,0.0,0.0,0.0,0.0,0.0,145.09990868736102,121.39397856780779,-87.93376929345374
2.7465567588806152,0,0,0,0.0,0.0,0.0,0.0,0.0,0.0,144.31571635732982,122.72551919116134,-88.71796162348494
2.7673325538635254,0,0,0,0.0,0.0,0.0,0.0,0.0,0.0,143.528994011082,124.05695517834943,-11.19405314517195
2.7870168685913086,0,0,0,0.0,0.0,0.0,0.0,0.0,0.0,142.7454096074649,125.38654571283013,-11.977637548789062
2.807110548019409,0,0,0,0.0,0.0,0.0,0.0,0.0,0.0,141.9599180339299,126.71668422251359,-12.763129122324045
2.8244082927703857,0,0,0,0.0,0.0,0.0,0.0,0.0,0.0,141.17506276025645,128.04627474737154,52.008060823585936
2.8447554111480713,0,0,0,0.0,0.0,0.0,0.0,0.0,0.0,140.39148526552353,129.3765035529362,51.22448332885301
2.865248203277588,0,0,0,0.0,0.0,0.0,0.0,0.0,0.0,139.6077410883877,130.70551198518768,-54.920877160131425
2.883908271789551,0,0,0,0.0,0.0,0.0,0.0,0.0,0.0,138.82224890140242,132.0338676876409,-55.70636934711672
2.903653860092163,0,0,0,0.0,0.0,0.0,0.0,0.0,0.0,138.03675740478442,133.36507423301353,-56.49186084373471
2.920865535736084,0,0,0,0.0,0.0,0.0,0.0,0.0,0.0,137.25073741980603,134.69678000076158,-17.472309736447897
2.937741279602051,0,0,0,0.0,0.0,0.0,0.0,0.0,0.0,136.46524554497495,136.02869791443496,-18.25780161127898
2.9564154148101807,0,0,0,0.0,0.0,0.0,0.0,0.0,0.0,135.6791949264143,137.35884806376419,-19.043852229839615
2.9742822647094727,0,0,0,0.0,0.0,0.0,0.0,0.0,0.0,134.89370254138242,138.68843856150937,45.72670060471191
2.9934182167053223,0,0,0,0.0,0.0,0.0,0.0,0.0,0.0,134.1082110194722,140.0174886376959,44.94120908280169
3.010819673538208,0,0,0,0.0,0.0,0.0,0.0,0.0,0.0,133.32227409689594,141.34841951858914,44.15527216022542
3.0250608921051025,0,0,0,0.0,0.0,0.0,0.0,0.0,0.0,132.5373732247626,142.6780104448718,-112.18567393149135
3.0440423488616943,0,0,0,0.0,0.0,0.0,0.0,0.0,0.0,131.75188146377906,144.00760156666536,-112.9711656924749
3.0622501373291016,0,0,0,0.0,0.0,0.0,0.0,0.0,0.0,130.96548632311968,145.33809810113576,-63.56313192539946
3.0763559341430664,0,0,0,0.0,0.0,0.0,0.0,0.0,0.0,130.17999454900237,146.66825939527803,-64.34862369951675
3.094595432281494,0,0,0,0.0,0.0,0.0,0.0,0.0,0.0,129.39450261897053,147.99843839999807,-65.1341156295486
3.1133618354797363,0,0,0,0.0,0.0,0.0,0.0,0.0,0.0,128.60859199347578,149.3292912996468,-26.114455162778142
3.126824140548706,0,0,0,0.0,0.0,0.0,0.0,0.0,0.0,127.82364990252083,150.65943209146894,-26.8993972537331
3.1443850994110107,0,0,0,0.0,0.0,0.0,0.0,0.0,0.0,127.0387122429031,151.9895773146283,-27.684334913350824
3.1622183322906494,0,0,0,0.0,0.0,0.0,0.0,0.0,0.0,126.25367249266162,153.31871847987685,-70.97982174159318
3.176697015762329,0,0,0,0.0,0.0,0.0,0.0,0.0,0.0,125.4687826619435,154.64951375491486,-71.76471157231131
3.19602108001709,0,0,0,0.0,0.0,0.0,0.0,0.0,0.0,124.6838896554337,155.97850559272334,-72.5496045788211
3.2172763347625732,0,0,0,0.0,0.0,0.0,0.0,0.0,0.0,123.89900928562051,157.30931987286004,-102.38908904771145
3.2367970943450928,0,0,0,0.0,0.0,0.0,0.0,0.0,0.0,123.11478437542013,158.6370092997734,-103.17331395791183
3.2572128772735596,0,0,0,0.0,0.0,0.0,0.0,0.0,0.0,122.33061370615715,159.9659386679215,-122.3924334500968
3.2783563137054443,0,0,0,0.0,0.0,0.0,0.0,0.0,0.0,121.54575434088234,161.29489627217572,-123.17729281537162
3.2987239360809326,0,0,0,0.0,0.0,0.0,0.0,0.0,0.0,120.76153262045263,162.6257574345231,-123.96151453580133
3.3189613819122314,0,0,0,0.0,0.0,0.0,0.0,0.0,0.0,119.9747635946901,163.9527946345524,10.251716438436148
3.3393588066101074,0,0,0,0.0,0.0,0.0,0.0,0.0,0.0,119.18927151479042,165.28359588855588,9.466224358536465
3.3587019443511963,0,0,0,0.0,0.0,0.0,0.0,0.0,0.0,118.40377967123328,166.6137650704784,8.680732514979326
3.377408981323242,0,0,0,0.0,0.0,0.0,0.0,0.0,0.0,117.6176461781605,167.9427144601827,-127.10540097809346
3.3971211910247803,0,0,0,0.0,0.0,0.0,0.0,0.0,0.0,116.83153652456832,169.27107022250067,-127.89151063168563
3.4168288707733154,0,0,0,0.0,0.0,0.0,0.0,0.0,0.0,116.04659933024098,170.60121591095043,-128.67644782601297
3.4344217777252197,0,0,0,0.0,0.0,0.0,0.0,0.0,0.0,115.26110730443676,171.9302077412433,-129.4619398518172
3.453733444213867,0,0,0,0.0,0.0,0.0,0.0,0.0,0.0,114.475074294925,173.26142355789278,-130.24797286132895
3.4710583686828613,0,0,0,0.0,0.0,0.0,0.0,0.0,0.0,113.68958270337987,174.58991632062038,-102.42300478690885
3.487246036529541,0,0,0,0.0,0.0,0.0,0.0,0.0,0.0,112.9040910094955,175.9195075095131,-103.20849648079322
3.505051851272583,0,0,0,0.0,0.0,0.0,0.0,0.0,0.0,112.1185999526632,177.24909933545786,-103.99398753762551
3.5206687450408936,0,0,0,0.0,0.0,0.0,0.0,0.0,0.0,111.33210543657012,178.5796943819152,-83.19651281194902
3.5367441177368164,0,0,0,0.0,0.0,0.0,0.0,0.0,0.0,110.54776837996772,179.909285427702,-83.98084986855142
3.5552656650543213,0,0,0,0.0,0.0,0.0,0.0,0.0,0.0,109.7617799078967,181.2408665069352,-84.76683834062244
3.57197642326355,0,0,0,0.0,0.0,0.0,0.0,0.0,0.0,108.97685441968515,182.57159015307667,-102.05612521058903
3.5900940895080566,0,0,0,0.0,0.0,0.0,0.0,0.0,0.0,108.19251724439363,183.90060386879435,-102.84046238588056
3.6085450649261475,0,0,0,0.0,0.0,0.0,0.0,0.0,0.0,107.40647782407576,185.2307430136362,-103.62650180619842
3.6261022090911865,0,0,0,0.0,0.0,0.0,0.0,0.0,0.0,106.62162236576326,186.56097043810075,-3.1014247904906824
3.6465847492218018,0,0,0,0.0,0.0,0.0,0.0,0.0,0.0,105.8354932768316,187.89119770008296,-3.8875538794223417
3.6670048236846924,0,0,0,0.0,0.0,0.0,0.0,0.0,0.0,105.04942169726485,189.22078872551896,-4.6736254589891075
3.685086965560913,0,0,0,0.0,0.0,0.0,0.0,0.0,0.0,104.26392976391705,190.54979124299388,-5.459117392336907
3.7039871215820312,0,0,0,0.0,0.0,0.0,0.0,0.0,0.0,103.47895878802906,191.87730133263273,-6.24408836822488
3.7205801010131836,0,0,0,0.0,0.0,0.0,0.0,0.0,0.0,102.69346730285434,193.20635565513277,13.526465366183885
3.7378058433532715,0,0,0,0.0,0.0,0.0,0.0,0.0,0.0,101.90738316472138,194.53653874406857,12.740381228050921
3.756742000579834,0,0,0,0.0,0.0,0.0,0.0,0.0,0.0,101.1218914309156,195.86726102528496,11.954889494245151
3.7748703956604004,0,0,0,0.0,0.0,0.0,0.0,0.0,0.0,100.33639927071798,197.19869502895466,-144.38664788553598
3.794616460800171,0,0,0,0.0,0.0,0.0,0.0,0.0,0.0,99.55090683783241,198.5282854788462,-145.17214031842155
3.8154659271240234,0,0,0,0.0,0.0,0.0,0.0,0.0,0.0,98.76645448956579,199.85735753816027,-10.95659266668818
3.8319790363311768,0,0,0,0.0,0.0,0.0,0.0,0.0,0.0,97.9803577552886,201.18876232393586,-11.74268940096536
3.851405143737793,0,0,0,0.0,0.0,0.0,0.0,0.0,0.0,97.19600414155104,202.51721529159147,-12.527043014702912
3.8691322803497314,0,0,0,0.0,0.0,0.0,0.0,0.0,0.0,96.41051259304824,203.84680662586572,-13.31253456320573
3.8865740299224854,0,0,0,0.0,0.0,0.0,0.0,0.0,0.0,95.62502040242191,205.17639731801648,-14.098026753832045
3.906658887863159,0,0,0,0.0,0.0,0.0,0.0,0.0,0.0,94.84115155335645,206.50544779252974,-14.881895602897487
3.9236910343170166,0,0,0,0.0,0.0,0.0,0.0,0.0,0.0,94.05722032375274,207.8345193032051,-100.47139792476639
3.940255641937256,0,0,0,0.0,0.0,0.0,0.0,0.0,0.0,93.27172873181752,209.16411059404697,-101.25688951670162
3.9578568935394287,0,0,0,0.0,0.0,0.0,0.0,0.0,0.0,92.48678289638264,210.49315619093636,-102.0418353521365
3.9753811359405518,0,0,0,0.0,0.0,0.0,0.0,0.0,0.0,91.70069043096576,211.82334746307487,-153.02235672528818
3.99458646774292,0,0,0,0.0,0.0,0.0,0.0,0.0,0.0,90.91519890690994,213.150772699598,-153.807848249344
4.01186728477478,0,0,0,0.0,0.0,0.0,0.0,0.0,0.0,90.1306644554301,214.47940809001886,-154.59238270082386
4.027138710021973,0,0,0,0.0,0.0,0.0,0.0,0.0,0.0,89.34459265791098,215.80783923698434,-126.76799483237778
4.045660972595215,0,0,0,0.0,0.0,0.0,0.0,0.0,0.0,88.55964174859498,217.13743060376788,-127.55294574169378
4.062971591949463,0,0,0,0.0,0.0,0.0,0.0,0.0,0.0,267.77415108089895,218.46746621780136,51.66156359061014
4.077134370803833,0,0,0,0.0,0.0,0.0,0.0,0.0,0.0,266.98979895077565,219.79876679085925,157.26675179452167
4.095383405685425,0,0,0,0.0,0.0,0.0,0.0,0.0,0.0,266.20377848479893,221.12730015683255,156.48073132854495
4.112265348434448,0,0,0,0.0,0.0,0.0,0.0,0.0,0.0,265.4191739770537,222.45910776759692,155.6961268207997
4.126494407653809,0,0,0,0.0,0.0,0.0,0.0,0.0,0.0,264.63481315295087,223.78643710008822,154.9117659966969
4.144546747207642,0,0,0,0.0,0.0,0.0,0.0,0.0,0.0,263.8493220848703,225.11505035552918,154.12627492861634
4.160205602645874,0,0,0,0.0,0.0,0.0,0.0,0.0,0.0,263.0638310582067,226.44658034607443,153.3407839019527
4.175732135772705,0,0,0,0.0,0.0,0.0,0.0,0.0,0.0,262.2777955009068,227.77725970633023,17.554748344652808
4.19315505027771,0,0,0,0.0,0.0,0.0,0.0,0.0,0.0,261.4932866269368,229.10734261011729,16.77023947068284
4.208822727203369,0,0,0,0.0,0.0,0.0,0.0,0.0,0.0,260.7077955615871,230.4388902943583,15.984748405333107
4.22444486618042,0,0,0,0.0,0.0,0.0,0.0,0.0,0.0,259.92330104900316,231.7689803473694,131.7653050698272
4.240390300750732,0,0,0,0.0,0.0,0.0,0.0,0.0,0.0,259.137809600694,233.09910463246044,130.97981362151802
4.257450819015503,0,0,0,0.0,0.0,0.0,0.0,0.0,0.0,258.35281747255647,234.42969441208714,130.19482149338046
4.2734293937683105,0,0,0,0.0,0.0,0.0,0.0,0.0,0.0,257.567817685591,235.76026880663395,12.84477052933704
4.2891457080841064,0,0,0,0.0,0.0,0.0,0.0,0.0,0.0,256.78232608383803,237.08930965366466,12.059278927584018
4.30713677406311,0,0,0,0.0,0.0,0.0,0.0,0.0,0.0,255.9973387489301,238.42041292236195,11.274291592676178
4.323396444320679,0,0,0,0.0,0.0,0.0,0.0,0.0,0.0,255.21234941253496,239.74799726221045,100.48930225628106
4.339121341705322,0,0,0,0.0,0.0,0.0,0.0,0.0,0.0,254.42797741681676,241.0770286170394,99.70493026056283
4.356961250305176,0,0,0,0.0,0.0,0.0,0.0,0.0,0.0,253.64248637259806,242.40710700086248,98.91943921634413
4.372522354125977,0,0,0,0.0,0.0,0.0,0.0,0.0,0.0,252.85699513865515,243.73415721940214,98.1339479824012
4.388803005218506,0,0,0,0.0,0.0,0.0,0.0,0.0,0.0,252.07150342292456,245.06487537617087,97.34845626667061
4.406940937042236,0,0,0,0.0,0.0,0.0,0.0,0.0,0.0,251.285498010693,246.3934387194023,96.56245085443905
4.423586130142212,0,0,0,0.0,0.0,0.0,0.0,0.0,0.0,250.50000609067402,247.7230296821604,55.97138784215488
4.44236159324646,0,0,0,0.0,0.0,0.0,0.0,0.0,0.0,249.71374464452524,249.0510831725454,55.1851263960061
4.467141389846802,0,0,0,0.0,0.0,0.0,0.0,0.0,0.0,248.92875764935326,250.38017065386902,168.68159949634503
4.483203649520874,0,0,0,0.0,0.0,0.0,0.0,0.0,0.0,248.14378599399356,251.71080155928303,167.8966278409854
4.500319004058838,0,0,0,0.0,0.0,0.0,0.0,0.0,0.0,247.35829368789425,253.0391298436949,167.11113553488605
4.521246433258057,0,0,0,0.0,0.0,0.0,0.0,0.0,0.0,246.57398266872215,254.36990170729987,1.8509355124681974
4.540843963623047,0,0,0,0.0,0.0,0.0,0.0,0.0,0.0,245.78973682472457,255.69824596062557,1.066689668470616
4.560800075531006,0,0,0,0.0,0.0,0.0,0.0,0.0,0.0,245.00482626273387,257.02725566301325,0.28177910647991666
4.5793726444244385,0,0,0,0.0,0.0,0.0,0.0,0.0,0.0,244.21933382263126,258.35684610568774,-0.5037133336226987
4.60005259513855,0,0,0,0.0,0.0,0.0,0.0,0.0,0.0,243.43449023291691,259.6864365276863,-1.2885569233370404
4.62066912651062,0,0,0,0.0,0.0,0.0,0.0,0.0,0.0,242.65020146795874,261.0154257200038,45.41670723370393
4.639711380004883,0,0,0,0.0,0.0,0.0,0.0,0.0,0.0,241.86532436256397,262.3450164370567,44.63183012830916
4.659282922744751,0,0,0,0.0,0.0,0.0,0.0,0.0,0.0,241.08095417685513,263.6729253688876,43.847459942600324
4.677239656448364,0,0,0,0.0,0.0,0.0,0.0,0.0,0.0,240.29670081093323,265.00313546682366,-4.426346345320724
4.695403814315796,0,0,0,0.0,0.0,0.0,0.0,0.0,0.0,239.51169297370524,266.3322441571682,-5.2113541825487175
4.710874319076538,0,0,0,0.0,0.0,0.0,0.0,0.0,0.0,238.72717312098973,267.66037922927774,-5.995874035264222
4.7262959480285645,0,0,0,0.0,0.0,0.0,0.0,0.0,0.0,237.94219659854468,268.9930594299299,-6.780850557709243
4.742817401885986,0,0,0,0.0,0.0,0.0,0.0,0.0,0.0,237.15619625182697,270.32163286036644,-7.566850904426957
4.759160757064819,0,0,0,0.0,0.0,0.0,0.0,0.0,0.0,236.3701936579451,271.6502018159153,-8.352853498308832
4.775515079498291,0,0,0,0.0,0.0,0.0,0.0,0.0,0.0,235.5847026707477,92.9788336892839,19.472115180458957
4.790874004364014,0,0,0,0.0,0.0,0.0,0.0,0.0,0.0,234.7997509047065,94.30680583637907,18.687163414417768
4.8080785274505615,0,0,0,0.0,0.0,0.0,0.0,0.0,0.0,234.01377197744645,95.63590979189608,17.901184487157707
4.823741674423218,0,0,0,0.0,0.0,0.0,0.0,0.0,0.0,233.22777331422296,96.96550144814236,-11.495273842030997
4.839964151382446,0,0,0,0.0,0.0,0.0,0.0,0.0,0.0,232.44116661164628,98.29732274531568,-12.281880544607674
4.8577892780303955,0,0,0,0.0,0.0,0.0,0.0,0.0,0.0,231.65664466703467,99.62691460136408,-13.066402489219286
4.873303651809692,0,0,0,0.0,0.0,0.0,0.0,0.0,0.0,230.87115343484726,100.95650625195374,102.71315745567131
4.889570951461792,0,0,0,0.0,0.0,0.0,0.0,0.0,0.0,230.0845309728833,102.28779349755112,101.92653499370732
4.907663345336914,0,0,0,0.0,0.0,0.0,0.0,0.0,0.0,229.29903993776722,103.61689984302866,101.14104395859124
4.9232306480407715,0,0,0,0.0,0.0,0.0,0.0,0.0,0.0,228.51252502277111,104.94700328606369,73.78947786651716
4.939599514007568,0,0,0,0.0,0.0,0.0,0.0,0.0,0.0,227.72759887724456,106.27659443483995,73.0045517209906
4.9576804637908936,0,0,0,0.0,0.0,0.0,0.0,0.0,0.0,226.9411376609015,107.60521610127394,72.21809050464753
4.973212480545044,0,0,0,0.0,0.0,0.0,0.0,0.0,0.0,226.15512467294596,108.93585090859347,31.62650642442682
4.990053415298462,0,0,0,0.0,0.0,0.0,0.0,0.0,0.0,225.37023992349452,110.26483434396206,30.841621674975386
5.010071277618408,0,0,0,0.0,0.0,0.0,0.0,0.0,0.0,224.58305965102196,111.59498837071133,69.85127145323071
5.027658939361572,0,0,0,0.0,0.0,0.0,0.0,0.0,0.0,223.7954353697767,112.92244697224314,114.07238821352274
5.050300598144531,0,0,0,0.0,0.0,0.0,0.0,0.0,0.0,223.00934753396893,114.25144201921245,113.28630037771495
5.069356203079224,0,0,0,0.0,0.0,0.0,0.0,0.0,0.0,222.22497150281993,115.57991760076567,-22.49807565343403
5.087881803512573,0,0,0,0.0,0.0,0.0,0.0,0.0,0.0,221.43758669982572,116.91140067979988,-23.28546045642824
5.107550859451294,0,0,0,0.0,0.0,0.0,0.0,0.0,0.0,220.65158318152515,118.24304129311528,-24.0714639747288
5.123838901519775,0,0,0,0.0,0.0,0.0,0.0,0.0,0.0,219.86448311622118,119.57263269838984,65.14143595996723
5.140977382659912,0,0,0,0.0,0.0,0.0,0.0,0.0,0.0,219.07899130068705,120.90107390262811,64.35594414443312
5.159417629241943,0,0,0,0.0,0.0,0.0,0.0,0.0,0.0,218.29404703837687,122.22902327429475,63.57099988212292
5.1769092082977295,0,0,0,0.0,0.0,0.0,0.0,0.0,0.0,217.5062875743576,123.56088212968278,-27.216759581896355
5.195190668106079,0,0,0,0.0,0.0,0.0,0.0,0.0,0.0,216.72028943722603,124.89148762078452,-28.002757719027926
5.211191177368164,0,0,0,0.0,0.0,0.0,0.0,0.0,0.0,215.9343328763891,126.2220110383453,-28.78871427986485
5.226038694381714,0,0,0,0.0,0.0,0.0,0.0,0.0,0.0,215.14979333611234,127.55112726683578,102.93719325785924
5.24126124382019,0,0,0,0.0,0.0,0.0,0.0,0.0,0.0,214.3637389822989,128.87903050480955,102.15113890404575
5.259369134902954,0,0,0,0.0,0.0,0.0,0.0,0.0,0.0,213.5782478536861,130.20862225897383,101.36564777543299
5.275183916091919,0,0,0,0.0,0.0,0.0,0.0,0.0,0.0,212.79176935140535,131.53920143075857,-3.3208181388833395
5.290985584259033,0,0,0,0.0,0.0,0.0,0.0,0.0,0.0,212.00684001531602,132.87047971709322,-4.105747474972702
5.308954954147339,0,0,0,0.0,0.0,0.0,0.0,0.0,0.0,211.22183262122172,134.20055520577603,-4.8907548690669955
5.324452877044678,0,0,0,0.0,0.0,0.0,0.0,0.0,0.0,210.4358413909258,135.52914679018866,55.71279423467183
5.34043025970459,0,0,0,0.0,0.0,0.0,0.0,0.0,0.0,209.65091896033692,136.85759923402793,54.927871804083
5.35870361328125,0,0,0,0.0,0.0,0.0,0.0,0.0,0.0,208.86542790844604,138.18914076264707,54.14238075219208
5.374271392822266,0,0,0,0.0,0.0,0.0,0.0,0.0,0.0,208.079428523725,139.5182242607031,-36.64361863252897
5.390549898147583,0,0,0,0.0,0.0,0.0,0.0,0.0,0.0,207.2961964077893,140.84555580337764,-37.42685074846466
5.408625602722168,0,0,0,0.0,0.0,0.0,0.0,0.0,0.0,206.51217088305967,142.17319357589912,-38.21087627319427
5.424296140670776,0,0,0,0.0,0.0,0.0,0.0,0.0,0.0,205.72667964339513,143.50227627730166,8.493185409140324
5.440568208694458,0,0,0,0.0,0.0,0.0,0.0,0.0,0.0,204.9417550266799,144.83356880485243,7.708260792425108
5.4587321281433105,0,0,0,0.0,0.0,0.0,0.0,0.0,0.0,204.15576302979287,146.16366134679794,6.922268795538059
5.474822998046875,0,0,0,0.0,0.0,0.0,0.0,0.0,0.0,203.3697663506875,147.49325302020912,48.64671919443356
5.4909467697143555,0,0,0,0.0,0.0,0.0,0.0,0.0,0.0,202.58427463638733,148.8217175267893,47.86122748013335
5.5089452266693115,0,0,0,0.0,0.0,0.0,0.0,0.0,0.0,201.7997564898282,150.15228226300727,47.07670933357423
5.5245020389556885,0,0,0,0.0,0.0,0.0,0.0,0.0,0.0,201.0142652551701,151.48085717509565,-43.70878190108384
5.54078483581543,0,0,0,0.0,0.0,0.0,0.0,0.0,0.0,200.22820741411866,152.8115805245143,-44.494839742135284
5.558945655822754,0,0,0,0.0,0.0,0.0,0.0,0.0,0.0,199.44322550759887,154.13964415440856,-45.27982164865506
5.575463771820068,0,0,0,0.0,0.0,0.0,0.0,0.0,0.0,198.65773367802072,155.46750558512423,-46.06531347823321
5.593847990036011,0,0,0,0.0,0.0,0.0,0.0,0.0,0.0,197.8716555298203,156.79651031970087,-46.85139162643364
5.612470626831055,0,0,0,0.0,0.0,0.0,0.0,0.0,0.0,197.08564574350999,158.12558341616767,-47.63740141274394
5.6294028759002686,0,0,0,0.0,0.0,0.0,0.0,0.0,0.0,196.300153543586,159.4533171610163,-19.812433946702697
5.6490318775177,0,0,0,0.0,0.0,0.0,0.0,0.0,0.0,195.51595789025887,160.78420439046624,-20.59662960002987
5.669841527938843,0,0,0,0.0,0.0,0.0,0.0,0.0,0.0,194.72990757983777,162.1143542369874,-49.99313957641617
5.687678575515747,0,0,0,0.0,0.0,0.0,0.0,0.0,0.0,193.9444161007098,163.44609116942982,-50.77863105554417
5.704808712005615,0,0,0,0.0,0.0,0.0,0.0,0.0,0.0,193.15947029481714,164.77404522619935,-51.563576861436815
5.722268342971802,0,0,0,0.0,0.0,0.0,0.0,0.0,0.0,192.3745118300712,166.1020377052962,82.65146467381726
5.739360094070435,0,0,0,0.0,0.0,0.0,0.0,0.0,0.0,191.59019009920414,167.4304585106314,81.86714294295018
5.758094549179077,0,0,0,0.0,0.0,0.0,0.0,0.0,0.0,190.80521399035055,168.75953491396183,81.0821668340966
5.774638414382935,0,0,0,0.0,0.0,0.0,0.0,0.0,0.0,190.02026645623639,170.0896702626248,83.02353029388871
5.7919251918792725,0,0,0,0.0,0.0,0.0,0.0,0.0,0.0,189.23477472574658,171.41813104262621,82.2380385633989
5.809946298599243,0,0,0,0.0,0.0,0.0,0.0,0.0,0.0,188.4487939271023,172.747233126759,81.45205776475461
5.825955152511597,0,0,0,0.0,0.0,0.0,0.0,0.0,0.0,187.66330270674825,174.07581133140695,-28.44928478354049
5.842114448547363,0,0,0,0.0,0.0,0.0,0.0,0.0,0.0,186.87667219297956,175.40369432704614,-29.23591529730919
5.860400915145874,0,0,0,0.0,0.0,0.0,0.0,0.0,0.0,186.09168923032442,176.73074462022163,-30.02089825996434
5.876623630523682,0,0,0,0.0,0.0,0.0,0.0,0.0,0.0,185.30619801673228,178.05932438135224,75.58315086047833
5.892844915390015,0,0,0,0.0,0.0,0.0,0.0,0.0,0.0,184.52014592511424,179.39115718686213,74.79709876886028
5.910909414291382,0,0,0,0.0,0.0,0.0,0.0,0.0,0.0,183.73364828108956,180.72225856118797,74.0106011248356
5.926992654800415,0,0,0,0.0,0.0,0.0,0.0,0.0,0.0,182.94715829974893,182.05334852471148,-43.340940033583024
5.942896366119385,0,0,0,0.0,0.0,0.0,0.0,0.0,0.0,182.16166660677484,183.38013527872488,-44.12643172655713
5.960906982421875,0,0,0,0.0,0.0,0.0,0.0,0.0,0.0,181.37667980362744,184.70821377093125,-44.91141852970452
5.977070093154907,0,0,0,0.0,0.0,0.0,0.0,0.0,0.0,180.5916898173028,186.0398102243505,-35.520897672985924
5.9931321144104,0,0,0,0.0,0.0,0.0,0.0,0.0,0.0,179.80564433941203,187.36940147559605,-36.30694315087672
6.010857343673706,0,0,0,0.0,0.0,0.0,0.0,0.0,0.0,179.02065489223344,188.69999664074254,-37.09193259805531
6.026967525482178,0,0,0,0.0,0.0,0.0,0.0,0.0,0.0,178.23516370503887,190.03160005269086,23.512116548784974
6.0430309772491455,0,0,0,0.0,0.0,0.0,0.0,0.0,0.0,177.44911120757845,191.36119124320905,22.726064051324556
6.060840845108032,0,0,0,0.0,0.0,0.0,0.0,0.0,0.0,176.66362006765237,192.68879293598263,21.940572911398476
6.07679009437561,0,0,0,0.0,0.0,0.0,0.0,0.0,0.0,175.8781288799377,194.01788164234893,66.15508172368374
6.092913866043091,0,0,0,0.0,0.0,0.0,0.0,0.0,0.0,175.09375669134957,195.3457936004425,65.37070953509561
6.11085319519043,0,0,0,0.0,0.0,0.0,0.0,0.0,0.0,174.30826547983807,196.67589098731668,64.58521832358412
6.12700891494751,0,0,0,0.0,0.0,0.0,0.0,0.0,0.0,173.52277431696044,198.00548270721612,18.79972716070654
6.142999649047852,0,0,0,0.0,0.0,0.0,0.0,0.0,0.0,172.7378568420837,199.3339251087488,18.01480968582979
6.161590814590454,0,0,0,0.0,0.0,0.0,0.0,0.0,0.0,171.95236479430318,200.66411748872162,17.22931763804928
6.180805206298828,0,0,0,0.0,0.0,0.0,0.0,0.0,0.0,171.16625376535634,201.99370817287507,43.008257786180394
6.200617074966431,0,0,0,0.0,0.0,0.0,0.0,0.0,0.0,170.3813871326885,203.3214219219734,42.22339115351255
6.220569610595703,0,0,0,0.0,0.0,0.0,0.0,0.0,0.0,169.59637061003957,204.64959061922355,-75.12667654621438
6.2358808517456055,0,0,0,0.0,0.0,0.0,0.0,0.0,0.0,168.810310108466,205.9797504805668,-75.91273704778794
6.254798889160156,0,0,0,0.0,0.0,0.0,0.0,0.0,0.0,168.02481788429012,207.30809762236518,-76.69822927196385
6.2740559577941895,0,0,0,0.0,0.0,0.0,0.0,0.0,0.0,167.24046348423698,208.6371200636935,57.51741632798303
6.292240619659424,0,0,0,0.0,0.0,0.0,0.0,0.0,0.0,166.45436175960194,209.96793004134886,56.73131460334798
6.311840772628784,0,0,0,0.0,0.0,0.0,0.0,0.0,0.0,165.66887017553395,211.29861815492882,55.94582301928
6.329252004623413,0,0,0,0.0,0.0,0.0,0.0,0.0,0.0,164.883378594912,212.6282094570839,-4.58323139781271
6.346820831298828,0,0,0,0.0,0.0,0.0,0.0,0.0,0.0,164.09788704211795,213.95780078706696,-5.368722950606752
6.364233732223511,0,0,0,0.0,0.0,0.0,0.0,0.0,0.0,163.3118318390418,215.287955441589,-6.154778153682912
6.382240533828735,0,0,0,0.0,0.0,0.0,0.0,0.0,0.0,162.5287087400619,216.61754635798883,52.80566158380793
6.401071310043335,0,0,0,0.0,0.0,0.0,0.0,0.0,0.0,161.7437867009078,217.94713747061476,52.02073954465385
6.41933274269104,0,0,0,0.0,0.0,0.0,0.0,0.0,0.0,160.9578655310274,219.2758685697553,51.234818374773454
6.433088779449463,0,0,0,0.0,0.0,0.0,0.0,0.0,0.0,160.17237369579263,220.60545961729758,50.449326539538674
6.45158576965332,0,0,0,0.0,0.0,0.0,0.0,0.0,0.0,159.38630205610107,221.93621020587406,49.66325489984712
6.47009015083313,0,0,0,0.0,0.0,0.0,0.0,0.0,0.0,158.60081140108363,223.26624437972293,3.8777642448296774
6.484233140945435,0,0,0,0.0,0.0,0.0,0.0,0.0,0.0,157.81531980199634,224.59803617749088,3.0922726457423835
6.501859426498413,0,0,0,0.0,0.0,0.0,0.0,0.0,0.0,157.0304200155406,225.92762709421584,2.3073728592866587
6.520788669586182,0,0,0,0.0,0.0,0.0,0.0,0.0,0.0,156.2449292105903,227.25813742629884,1.521882054336345
6.53561544418335,0,0,0,0.0,0.0,0.0,0.0,0.0,0.0,155.45943770083855,228.58934847358958,0.7363905445845944
6.552790403366089,0,0,0,0.0,0.0,0.0,0.0,0.0,0.0,154.67394576066377,229.92188548751864,-0.04910139559018489
6.571675539016724,0,0,0,0.0,0.0,0.0,0.0,0.0,0.0,153.8874872831316,231.2519610795993,-0.835559873122321
6.587136507034302,0,0,0,0.0,0.0,0.0,0.0,0.0,0.0,153.10305055732314,232.58260723656795,-1.6199965989307827
6.604025840759277,0,0,0,0.0,0.0,0.0,0.0,0.0,0.0,152.3181280233364,233.9127675853583,-2.404919132917513
6.622227191925049,0,0,0,0.0,0.0,0.0,0.0,0.0,0.0,151.53216684040598,235.24282984649952,-64.58042064988274
6.637283086776733,0,0,0,0.0,0.0,0.0,0.0,0.0,0.0,150.74667561231473,236.57445196321194,-65.36591187797399
6.653580904006958,0,0,0,0.0,0.0,0.0,0.0,0.0,0.0,149.96176364706724,237.9057826679196,-66.15082384322147
6.672090530395508,0,0,0,0.0,0.0,0.0,0.0,0.0,0.0,149.17627250239482,239.23736663167125,-95.54677465385913
6.688068866729736,0,0,0,0.0,0.0,0.0,0.0,0.0,0.0,148.3902712462896,240.56797827977218,-96.33277590996437
6.7040627002716064,0,0,0,0.0,0.0,0.0,0.0,0.0,0.0,147.60477953530534,241.89700650059626,-97.11826762094861
6.722105979919434,0,0,0,0.0,0.0,0.0,0.0,0.0,0.0,146.81885377339384,243.22572845540094,-79.46924455993812
6.735981225967407,0,0,0,0.0,0.0,0.0,0.0,0.0,0.0,146.03389524956341,244.55478696408971,-80.25420308376854
6.753152847290039,0,0,0,0.0,0.0,0.0,0.0,0.0,0.0,145.249061357092,245.88305999336586,-81.03903697623997
6.774332284927368,0,0,0,0.0,0.0,0.0,0.0,0.0,0.0,144.46525531201254,247.21265117445634,-100.25779184424141
6.792240619659424,0,0,0,0.0,0.0,0.0,0.0,0.0,0.0,143.68042243136313,248.53960280455374,-101.04262472489083
6.813357830047607,0,0,0,0.0,0.0,0.0,0.0,0.0,0.0,142.89548199477406,249.86864290754013,-101.8275651614799
6.831056356430054,0,0,0,0.0,0.0,0.0,0.0,0.0,0.0,142.1094169312318,251.19880725191953,-102.61363022502215
6.8498547077178955,0,0,0,0.0,0.0,0.0,0.0,0.0,0.0,141.32450116241986,252.52667013972464,-103.39854599383408
6.867891550064087,0,0,0,0.0,0.0,0.0,0.0,0.0,0.0,140.5390101133898,253.8543135870409,-104.18403704286416
6.883560657501221,0,0,0,0.0,0.0,0.0,0.0,0.0,0.0,139.75411399017284,255.18330859643223,-57.479380244081966
6.902550458908081,0,0,0,0.0,0.0,0.0,0.0,0.0,0.0,138.9692235759953,256.511094527499,-58.264270658259505
6.921766996383667,0,0,0,0.0,0.0,0.0,0.0,0.0,0.0,138.18468692876635,257.8402092904476,-106.5383602274876
6.937089204788208,0,0,0,0.0,0.0,0.0,0.0,0.0,0.0,137.39919541784428,259.1703406878348,-107.32385173840967
6.954333782196045,0,0,0,0.0,0.0,0.0,0.0,0.0,0.0,136.61429965651985,260.4981428486361,-108.10874749973411
6.973313570022583,0,0,0,0.0,0.0,0.0,0.0,0.0,0.0,135.8283094708922,261.8277345782234,-108.89473768536175
6.989261150360107,0,0,0,0.0,0.0,0.0,0.0,0.0,0.0,135.04378835710455,263.15684147233964,-109.6792587991494
7.004749298095703,0,0,0,0.0,0.0,0.0,0.0,0.0,0.0,134.2571721659699,264.4864326503092,-110.46587499028405
7.022773504257202,0,0,0,0.0,0.0,0.0,0.0,0.0,0.0,133.47123994064313,265.81690802844025,23.748192784389175
7.036866903305054,0,0,0,0.0,0.0,0.0,0.0,0.0,0.0,132.68574861742968,267.1454625565918,22.962701461175726
7.05348014831543,0,0,0,0.0,0.0,0.0,0.0,0.0,0.0,131.90084116476058,268.4733002031247,22.177794008506623
7.0723090171813965,0,0,0,0.0,0.0,0.0,0.0,0.0,0.0,131.1158167026325,269.80149299839223,-113.60723045362147
7.087261915206909,0,0,0,0.0,0.0,0.0,0.0,0.0,0.0,130.33085257316048,271.131084481559,-114.39219458309347
7.104141712188721,0,0,0,0.0,0.0,0.0,0.0,0.0,0.0,129.5459364867694,272.4629784864402,-115.17711066948456
7.122502565383911,0,0,0,0.0,0.0,0.0,0.0,0.0,0.0,128.76132321086382,93.79213206745854,-25.961723945390105
7.136483669281006,0,0,0,0.0,0.0,0.0,0.0,0.0,0.0,127.97636391154938,95.12119136528523,-26.746683244704542
7.153497695922852,0,0,0,0.0,0.0,0.0,0.0,0.0,0.0,127.19087203814871,96.45078237466164,-27.532175118105215
7.172151803970337,0,0,0,0.0,0.0,0.0,0.0,0.0,0.0,126.40538150731673,97.78080244208708,-28.317665648937208
7.185803651809692,0,0,0,0.0,0.0,0.0,0.0,0.0,0.0,125.61989003085449,99.111466001851,-29.103157125399434
7.203007936477661,0,0,0,0.0,0.0,0.0,0.0,0.0,0.0,124.83384580806876,100.44105726395463,-29.889201348185182
7.220650672912598,0,0,0,0.0,0.0,0.0,0.0,0.0,0.0,124.04835543555703,101.77105934753655,-30.674691720696927
7.233754873275757,0,0,0,0.0,0.0,0.0,0.0,0.0,0.0,123.26399754901041,103.10065048460947,-121.45904960724354
7.251913070678711,0,0,0,0.0,0.0,0.0,0.0,0.0,0.0,122.47903382574431,104.42918660435987,-122.24401333050965
7.268796443939209,0,0,0,0.0,0.0,0.0,0.0,0.0,0.0,121.69354301188645,105.76015911685208,-123.02950414436751
7.2836012840271,0,0,0,0.0,0.0,0.0,0.0,0.0,0.0,120.9074796092916,107.08860698104036,31.740477672621125
7.301830291748047,0,0,0,0.0,0.0,0.0,0.0,0.0,0.0,120.12198817567662,108.4166049298267,30.95498623900616
7.318895578384399,0,0,0,0.0,0.0,0.0,0.0,0.0,0.0,119.33605308690655,109.74753037275951,30.169051150236072
7.333059310913086,0,0,0,0.0,0.0,0.0,0.0,0.0,0.0,118.5499978763148,111.07768503466711,8.826950720060836
7.351338863372803,0,0,0,0.0,0.0,0.0,0.0,0.0,0.0,117.76394596507112,112.40727623025674,8.040898808817161
7.369482517242432,0,0,0,0.0,0.0,0.0,0.0,0.0,0.0,116.97845477924193,113.73485683668761,-109.30964355409003
7.385778427124023,0,0,0,0.0,0.0,0.0,0.0,0.0,0.0,116.19296280356704,115.0656343083545,-110.09513552976492
7.405043840408325,0,0,0,0.0,0.0,0.0,0.0,0.0,0.0,115.40809814284427,116.39522491585107,-110.88000019048769
7.425663232803345,0,0,0,0.0,0.0,0.0,0.0,0.0,0.0,114.62142029104893,117.72600170505541,-101.49116719923981
7.445016860961914,0,0,0,0.0,0.0,0.0,0.0,0.0,0.0,113.8359275671402,119.05559186392377,-102.27665992314854
7.466589689254761,0,0,0,0.0,0.0,0.0,0.0,0.0,0.0,113.04985696460135,120.38634040511258,-103.0627305256874
7.485098838806152,0,0,0,0.0,0.0,0.0,0.0,0.0,0.0,112.26436454536969,121.71399853822845,-132.45868261088427
7.505712270736694,0,0,0,0.0,0.0,0.0,0.0,0.0,0.0,111.479502277569,123.04547921029656,-133.24354487868496
7.525845766067505,0,0,0,0.0,0.0,0.0,0.0,0.0,0.0,110.69400995742566,124.3725387510969,0.9709628011717086
7.546263933181763,0,0,0,0.0,0.0,0.0,0.0,0.0,0.0,109.90982618784875,125.70278349470439,0.1867790315947957
7.567129373550415,0,0,0,0.0,0.0,0.0,0.0,0.0,0.0,109.12544524593652,127.03237473281618,-0.5976019103174508
7.584727048873901,0,0,0,0.0,0.0,0.0,0.0,0.0,0.0,108.34057169299707,128.36134677453643,-136.3824754632569
7.604343891143799,0,0,0,0.0,0.0,0.0,0.0,0.0,0.0,107.55694044268776,129.6896968048075,-137.1661067135662
7.624281883239746,0,0,0,0.0,0.0,0.0,0.0,0.0,0.0,106.77144923969368,131.01979322417304,13.437942417474517
7.639404773712158,0,0,0,0.0,0.0,0.0,0.0,0.0,0.0,105.98646459313039,132.3493848879615,12.652957770911229
7.655419111251831,0,0,0,0.0,0.0,0.0,0.0,0.0,0.0,105.20270490443522,133.68013069930004,11.869198082216059
7.673867225646973,0,0,0,0.0,0.0,0.0,0.0,0.0,0.0,104.41674511940626,135.00878490220887,-72.92616698488811
7.688874006271362,0,0,0,0.0,0.0,0.0,0.0,0.0,0.0,103.63125381147219,136.34044353633038,-73.71165829282218
7.705448389053345,0,0,0,0.0,0.0,0.0,0.0,0.0,0.0,102.84518968737983,137.67003462626482,-74.49772241691454
7.723743438720703,0,0,0,0.0,0.0,0.0,0.0,0.0,0.0,102.060568370285,138.9996269178077,-118.21852400555244
7.737637281417847,0,0,0,0.0,0.0,0.0,0.0,0.0,0.0,101.27560989815349,140.32815239660425,-119.00348247768393
7.75476336479187,0,0,0,0.0,0.0,0.0,0.0,0.0,0.0,100.49069978668207,141.65483458580144,-119.78839258915535
7.773342132568359,0,0,0,0.0,0.0,0.0,0.0,0.0,0.0,99.70564503636413,142.98529856977493,-55.01740211988982
7.7873265743255615,0,0,0,0.0,0.0,0.0,0.0,0.0,0.0,98.9190687151324,144.31868668467214,-55.80397844112156
7.80464768409729,0,0,0,0.0,0.0,0.0,0.0,0.0,0.0,98.13241389628774,145.649440641053,-56.59063325996621
7.823299884796143,0,0,0,0.0,0.0,0.0,0.0,0.0,0.0,97.34734766880644,146.97648738316414,-128.94075066452552
7.836823225021362,0,0,0,0.0,0.0,0.0,0.0,0.0,0.0,96.56131017248197,148.30444090193143,-129.72678816085
7.854299783706665,0,0,0,0.0,0.0,0.0,0.0,0.0,0.0,95.77581841852043,149.634032030747,-130.51227991481153
7.872469663619995,0,0,0,0.0,0.0,0.0,0.0,0.0,0.0,94.99032790329291,150.96362439829656,-149.73271925296103
7.8861095905303955,0,0,0,0.0,0.0,0.0,0.0,0.0,0.0,94.20540205318883,152.29547909046207,-150.5176451030651
7.904237508773804,0,0,0,0.0,0.0,0.0,0.0,0.0,0.0,93.41878351236394,153.62845073565217,-151.30426364388998
7.9222571849823,0,0,0,0.0,0.0,0.0,0.0,0.0,0.0,92.63286537878562,154.95804308857257,-104.60062885546918
7.936203479766846,0,0,0,0.0,0.0,0.0,0.0,0.0,0.0,91.84737302008627,156.28699643899765,-105.38612121416854
7.956932306289673,0,0,0,0.0,0.0,0.0,0.0,0.0,0.0,91.06188095936707,157.61598423341374,-106.17161327488773
7.9759275913238525,0,0,0,0.0,0.0,0.0,0.0,0.0,0.0,90.27638910924306,158.94731195170047,-104.25222913927608
7.994289875030518,0,0,0,0.0,0.0,0.0,0.0,0.0,0.0,89.49089712901686,160.27690285425138,-105.03772111950228
8.013268232345581,0,0,0,0.0,0.0,0.0,0.0,0.0,0.0,88.70386442607779,161.6059806479676,-105.82475382244135
8.02971363067627,0,0,0,0.0,0.0,0.0,0.0,0.0,0.0,267.91778770584125,162.93498681050812,158.19474054958727
8.04845118522644,0,0,0,0.0,0.0,0.0,0.0,0.0,0.0,267.13229609401037,164.26512967028765,157.4092489377564
8.06609296798706,0,0,0,0.0,0.0,0.0,0.0,0.0,0.0,266.34735800603005,165.5952744650844,156.62431084977607
8.083800077438354,0,0,0,0.0,0.0,0.0,0.0,0.0,0.0,265.5607094580147,166.9248655024838,49.44812196772594
8.102354764938354,0,0,0,0.0,0.0,0.0,0.0,0.0,0.0,264.7752180752443,168.25340632161465,48.66263058495551
8.119172096252441,0,0,0,0.0,0.0,0.0,0.0,0.0,0.0,263.9887439281219,169.58201505726933,47.87615643783312
8.134874820709229,0,0,0,0.0,0.0,0.0,0.0,0.0,0.0,263.20263109543123,170.9103644888932,153.47958393917725
8.154746770858765,0,0,0,0.0,0.0,0.0,0.0,0.0,0.0,262.4177098539179,172.23938505883734,152.69466269766394
8.172857999801636,0,0,0,0.0,0.0,0.0,0.0,0.0,0.0,261.6322193034503,173.56940735670253,67.10360105493115
8.186622619628906,0,0,0,0.0,0.0,0.0,0.0,0.0,0.0,260.8461685947025,174.89788049876842,66.31755034618334
8.204528570175171,0,0,0,0.0,0.0,0.0,0.0,0.0,0.0,260.06067703228575,176.23129330387326,65.53205878376656
8.221959590911865,0,0,0,0.0,0.0,0.0,0.0,0.0,0.0,259.27433056164296,177.56088565360773,64.74571231312382
8.23568606376648,0,0,0,0.0,0.0,0.0,0.0,0.0,0.0,258.48826788054566,178.89161855750223,63.959649632026526
8.253970623016357,0,0,0,0.0,0.0,0.0,0.0,0.0,0.0,257.7033079534585,180.2212100036735,63.17468970493931
8.27096676826477,0,0,0,0.0,0.0,0.0,0.0,0.0,0.0,256.9182698206551,181.55125475364716,62.38965157213593
8.285431385040283,0,0,0,0.0,0.0,0.0,0.0,0.0,0.0,256.13393642857994,182.88026655288706,40.02134893829117
8.30396842956543,0,0,0,0.0,0.0,0.0,0.0,0.0,0.0,255.34791645111713,184.21091515781922,39.23532896082838
8.320889949798584,0,0,0,0.0,0.0,0.0,0.0,0.0,0.0,254.56287077765492,185.5391723340225,38.450283287366176
8.335180759429932,0,0,0,0.0,0.0,0.0,0.0,0.0,0.0,253.77737912915353,186.86654040445507,59.24876088063439
8.352923393249512,0,0,0,0.0,0.0,0.0,0.0,0.0,0.0,252.99188818187756,188.19803408575234,58.46326993335842
8.368130922317505,0,0,0,0.0,0.0,0.0,0.0,0.0,0.0,252.20540310944392,189.52861977060368,57.67678486092478
8.38404369354248,0,0,0,0.0,0.0,0.0,0.0,0.0,0.0,251.4199118250466,190.857697301274,6.696864668792642
8.400552988052368,0,0,0,0.0,0.0,0.0,0.0,0.0,0.0,250.6339121998264,192.18830572993195,5.910865043572443
8.41676926612854,0,0,0,0.0,0.0,0.0,0.0,0.0,0.0,249.84842123018402,193.51646364472032,5.125374073930061
8.432076692581177,0,0,0,0.0,0.0,0.0,0.0,0.0,0.0,249.0629301932474,194.84751262295987,94.33988303699346
8.447644710540771,0,0,0,0.0,0.0,0.0,0.0,0.0,0.0,248.27629938015514,196.1793818269296,93.55325222390118
8.466007947921753,0,0,0,0.0,0.0,0.0,0.0,0.0,0.0,247.49080830479255,197.5089736343441,92.7677611485386
8.481672286987305,0,0,0,0.0,0.0,0.0,0.0,0.0,0.0,246.70531714477576,198.83706591285812,1.9822699885218071
8.497673511505127,0,0,0,0.0,0.0,0.0,0.0,0.0,0.0,245.91870390197855,200.1660963282372,1.195656745724591
8.515683650970459,0,0,0,0.0,0.0,0.0,0.0,0.0,0.0,245.132707470888,201.49669845153454,0.4096603146340385
8.531877040863037,0,0,0,0.0,0.0,0.0,0.0,0.0,0.0,244.34779069763965,202.8262895178022,-0.3752564586142739
8.550394773483276,0,0,0,0.0,0.0,0.0,0.0,0.0,0.0,243.56229902352095,204.15420454699193,-1.1607481327329765
8.568164587020874,0,0,0,0.0,0.0,0.0,0.0,0.0,0.0,242.77680681969588,205.4825563732046,-1.946240336558077
8.588369846343994,0,0,0,0.0,0.0,0.0,0.0,0.0,0.0,241.9907336768845,206.8109848412239,-2.732313479369452
8.606554985046387,0,0,0,0.0,0.0,0.0,0.0,0.0,0.0,241.20524125654754,208.14057530366398,-3.517805899706417
8.627285480499268,0,0,0,0.0,0.0,0.0,0.0,0.0,0.0,240.42028360421344,209.47070053410698,151.25328166754292
8.64430832862854,0,0,0,0.0,0.0,0.0,0.0,0.0,0.0,239.6347920094174,210.800291822088,150.46779007274688
8.661866664886475,0,0,0,0.0,0.0,0.0,0.0,0.0,0.0,238.84982107045724,212.12936296449902,149.68281913378672
8.678560495376587,0,0,0,0.0,0.0,0.0,0.0,0.0,0.0,238.0643294248817,213.45895420170052,60.72141732058731
8.696295022964478,0,0,0,0.0,0.0,0.0,0.0,0.0,0.0,237.27824674477498,214.78913585783732,59.93533464048062
8.715250015258789,0,0,0,0.0,0.0,0.0,0.0,0.0,0.0,236.49223396725623,216.11977024974485,59.14932186296187
8.731932640075684,0,0,0,0.0,0.0,0.0,0.0,0.0,0.0,235.70622701432683,217.44987748895875,80.98317985807287
8.748318195343018,0,0,0,0.0,0.0,0.0,0.0,0.0,0.0,234.92129315827353,218.7789108955463,80.19824600201957
8.76612114906311,0,0,0,0.0,0.0,0.0,0.0,0.0,0.0,234.13531928149612,220.10801990154593,79.41227212524217
8.781591892242432,0,0,0,0.0,0.0,0.0,0.0,0.0,0.0,233.34982810893075,221.43761161175763,78.62678095267682
8.797656059265137,0,0,0,0.0,0.0,0.0,0.0,0.0,0.0,232.5649031672508,222.76663594701694,77.84185601099688
8.815772533416748,0,0,0,0.0,0.0,0.0,0.0,0.0,0.0,231.7803803176345,224.09622780703145,77.05733316138054
8.831332445144653,0,0,0,0.0,0.0,0.0,0.0,0.0,0.0,230.99437720517628,225.4253075773503,14.88178971488756
8.847640752792358,0,0,0,0.0,0.0,0.0,0.0,0.0,0.0,230.20888545810672,226.75886831534464,14.096297967818003
8.865814447402954,0,0,0,0.0,0.0,0.0,0.0,0.0,0.0,229.42339413859935,228.08949606066028,13.310806648310631
8.883265018463135,0,0,0,0.0,0.0,0.0,0.0,0.0,0.0,228.63678716663145,229.42131789310508,-16.086259989622476
8.901034593582153,0,0,0,0.0,0.0,0.0,0.0,0.0,0.0,227.8512952981722,230.74858492232312,-16.871751858081723
8.919692516326904,0,0,0,0.0,0.0,0.0,0.0,0.0,0.0,227.0652362997185,232.07874330655397,-17.657810856535434
8.9378182888031,0,0,0,0.0,0.0,0.0,0.0,0.0,0.0,226.2803667866815,233.40833395676776,-18.44268036957243
8.957717895507812,0,0,0,0.0,0.0,0.0,0.0,0.0,0.0,225.49423955410285,234.73855939451616,-19.22880760215108
8.978274822235107,0,0,0,0.0,0.0,0.0,0.0,0.0,0.0,224.70815918880066,236.06638504808228,69.98511203254674
8.99720573425293,0,0,0,0.0,0.0,0.0,0.0,0.0,0.0,223.9220229825966,237.3959755144235,69.19897582634263
9.017767190933228,0,0,0,0.0,0.0,0.0,0.0,0.0,0.0,223.1359719957716,238.72612602564524,68.41292483951764
9.035722255706787,0,0,0,0.0,0.0,0.0,0.0,0.0,0.0,222.34929504194707,240.05749441720184,67.62624788569315
9.054696559906006,0,0,0,0.0,0.0,0.0,0.0,0.0,0.0,221.56323082766752,241.3882303476694,66.84018367141357
9.072943687438965,0,0,0,0.0,0.0,0.0,0.0,0.0,0.0,220.777739546066,242.71782194884494,66.05469238981203
9.089403867721558,0,0,0,0.0,0.0,0.0,0.0,0.0,0.0,219.99164889942415,244.04441968758562,65.2686017431702
9.108654022216797,0,0,0,0.0,0.0,0.0,0.0,0.0,0.0,219.20490676788668,245.37588513782177,64.48185961163273
9.12863039970398,0,0,0,0.0,0.0,0.0,0.0,0.0,0.0,218.41823515698832,246.70665574035462,-26.304811999265638
9.147106647491455,0,0,0,0.0,0.0,0.0,0.0,0.0,0.0,217.6314869192495,248.03624634466527,-27.091560237004444
9.167366981506348,0,0,0,0.0,0.0,0.0,0.0,0.0,0.0,216.84475719467508,249.3658370294039,-27.878289961578872
9.187995672225952,0,0,0,0.0,0.0,0.0,0.0,0.0,0.0,216.05791188629425,250.69677982020792,11.140435822305449
9.20928406715393,0,0,0,0.0,0.0,0.0,0.0,0.0,0.0,215.27241935412533,252.02439901541103,10.354943290136532
9.22960352897644,0,0,0,0.0,0.0,0.0,0.0,0.0,0.0,214.48692758885053,253.35342096070983,-30.236119567403406
9.247948169708252,0,0,0,0.0,0.0,0.0,0.0,0.0,0.0,213.7014352659114,254.6868099755477,-31.02161189034254
9.268102884292603,0,0,0,0.0,0.0,0.0,0.0,0.0,0.0,212.9159436202058,256.016956683205,-31.807103536048146
9.285987138748169,0,0,0,0.0,0.0,0.0,0.0,0.0,0.0,212.13110305857188,257.34459130113925,-32.591944097682074
9.306374073028564,0,0,0,0.0,0.0,0.0,0.0,0.0,0.0,211.3462001775657,258.6724150716975,-33.37684697868828
9.325220346450806,0,0,0,0.0,0.0,0.0,0.0,0.0,0.0,210.5611597995514,260.00155687577205,-34.161887356702536
9.339675426483154,0,0,0,0.0,0.0,0.0,0.0,0.0,0.0,209.77624743548358,261.33404535951195,-34.94679972077037
9.358134031295776,0,0,0,0.0,0.0,0.0,0.0,0.0,0.0,208.99135680712476,262.66363619561383,-35.731690349129195
9.377400875091553,0,0,0,0.0,0.0,0.0,0.0,0.0,0.0,208.20586569470157,263.9907561613489,-36.51718146155238
9.393200874328613,0,0,0,0.0,0.0,0.0,0.0,0.0,0.0,207.42144272199732,265.3214160714217,-37.30160443425663
9.410217761993408,0,0,0,0.0,0.0,0.0,0.0,0.0,0.0,206.6365015394665,266.6482552571149,-38.08654561678745
9.427855730056763,0,0,0,0.0,0.0,0.0,0.0,0.0,0.0,205.8510104710609,267.9783363883671,51.12796331480695
9.443493366241455,0,0,0,0.0,0.0,0.0,0.0,0.0,0.0,205.06551936696007,269.3079281670433,50.34247221070612
9.459255933761597,0,0,0,0.0,0.0,0.0,0.0,0.0,0.0,204.27946024074117,270.63922143005595,49.55641308448722
9.477402448654175,0,0,0,0.0,0.0,0.0,0.0,0.0,0.0,203.4944231936154,271.9683598445952,-41.228623962638565
9.491958618164062,0,0,0,0.0,0.0,0.0,0.0,0.0,0.0,202.70893185109142,93.29795138484837,-42.01411530516252
9.508618593215942,0,0,0,0.0,0.0,0.0,0.0,0.0,0.0,201.92402436149453,94.62929559531028,-42.79902279475942
9.527322053909302,0,0,0,0.0,0.0,0.0,0.0,0.0,0.0,201.13768458073415,95.9593126124986,-43.58536257551978
9.540889263153076,0,0,0,0.0,0.0,0.0,0.0,0.0,0.0,200.35326907060963,97.28944199362742,-44.3697780856443
9.558101892471313,0,0,0,0.0,0.0,0.0,0.0,0.0,0.0,199.56833980099034,98.62072048054257,-45.15470735526358
9.576104402542114,0,0,0,0.0,0.0,0.0,0.0,0.0,0.0,198.78242225362877,99.95073986111075,134.05937509737475
9.58981704711914,0,0,0,0.0,0.0,0.0,0.0,0.0,0.0,197.9969305471308,101.2792061636325,133.2738833908768
9.607786178588867,0,0,0,0.0,0.0,0.0,0.0,0.0,0.0,197.21199092295356,102.60824543990297,132.48894376669955
9.625442743301392,0,0,0,0.0,0.0,0.0,0.0,0.0,0.0,196.42691742807924,103.93825482780574,131.70387027182522
9.638819456100464,0,0,0,0.0,0.0,0.0,0.0,0.0,0.0,195.6419966813985,105.26784592905341,-20.470590808890222
9.65711784362793,0,0,0,0.0,0.0,0.0,0.0,0.0,0.0,194.85650528718477,106.59638411413661,-21.256082203103944
9.673932552337646,0,0,0,0.0,0.0,0.0,0.0,0.0,0.0,194.07101455668072,107.92597626640965,-22.041572933607995
9.688344478607178,0,0,0,0.0,0.0,0.0,0.0,0.0,0.0,193.2855228538888,109.25556744639482,-22.82706463639994
9.706350088119507,0,0,0,0.0,0.0,0.0,0.0,0.0,0.0,192.50053518663066,110.58717323732748,-23.61205230365809
9.72248387336731,0,0,0,0.0,0.0,0.0,0.0,0.0,0.0,191.7155027997945,111.91859896888556,-24.39708469049424
9.737132549285889,0,0,0,0.0,0.0,0.0,0.0,0.0,0.0,190.93054076782212,113.24819043358711,83.93380460547445
9.754080772399902,0,0,0,0.0,0.0,0.0,0.0,0.0,0.0,190.14504969226445,114.57729210436197,83.14831352991678
9.769768238067627,0,0,0,0.0,0.0,0.0,0.0,0.0,0.0,189.35955812393095,115.9079766275954,82.36282196158328
9.787496328353882,0,0,0,0.0,0.0,0.0,0.0,0.0,0.0,188.5734394365886,117.23882009042464,-16.344036627400214
9.807698726654053,0,0,0,0.0,0.0,0.0,0.0,0.0,0.0,187.78855219820272,118.57022541108158,-17.128923865786078
9.827138185501099,0,0,0,0.0,0.0,0.0,0.0,0.0,0.0,187.0026037692441,119.90027513892406,-7.526014479275034
9.841592788696289,0,0,0,0.0,0.0,0.0,0.0,0.0,0.0,186.21654583800546,121.22873389849121,-8.312072410513679
9.859863519668579,0,0,0,0.0,0.0,0.0,0.0,0.0,0.0,185.43170532807048,122.55897627133331,-9.09691292044866
9.880887746810913,0,0,0,0.0,0.0,0.0,0.0,0.0,0.0,184.64678532733151,123.89085451544344,-20.270690736657258
9.899282932281494,0,0,0,0.0,0.0,0.0,0.0,0.0,0.0,183.86253280706975,125.21858565994783,-21.054943256919046
9.919091701507568,0,0,0,0.0,0.0,0.0,0.0,0.0,0.0,183.07808533989405,126.54661136068353,-21.839390724094756
9.935801029205322,0,0,0,0.0,0.0,0.0,0.0,0.0,0.0,182.29312290171575,127.87514487631864,93.12612096504523
9.952749967575073,0,0,0,0.0,0.0,0.0,0.0,0.0,0.0,181.5076311526956,129.20700524830917,92.34062921602509
9.970945119857788,0,0,0,0.0,0.0,0.0,0.0,0.0,0.0,180.723266189309,130.5343429137886,91.55626425263847
9.988940000534058,0,0,0,0.0,0.0,0.0,0.0,0.0,0.0,179.93898245380313,131.86151705557623,2.59607034950875
10.008027076721191,0,0,0,0.0,0.0,0.0,0.0,0.0,0.0,179.15349092890207,133.19165004085932,1.8105788246076884
10.025227546691895,0,0,0,0.0,0.0,0.0,0.0,0.0,0.0,178.36800026335158,134.52035595191927,1.0250881590571908
10.039665699005127,0,0,0,0.0,0.0,0.0,0.0,0.0,0.0,177.58250828683143,135.84876009989642,88.41550635016091
10.05821442604065,0,0,0,0.0,0.0,0.0,0.0,0.0,0.0,176.7970167610201,137.1826853105838,87.63001482434959
10.075562477111816,0,0,0,0.0,0.0,0.0,0.0,0.0,0.0,176.01240879645363,138.51051217324095,86.84540685978311
10.089651346206665,0,0,0,0.0,0.0,0.0,0.0,0.0,0.0,175.22806914352626,139.8377988850367,-69.49497801272769
10.108091831207275,0,0,0,0.0,0.0,0.0,0.0,0.0,0.0,174.4425775343611,141.1668388752891,-70.28046962189283
10.12575364112854,0,0,0,0.0,0.0,0.0,0.0,0.0,0.0,173.65665799536575,142.4972892100114,-71.0663891608882
10.139488697052002,0,0,0,0.0,0.0,0.0,0.0,0.0,0.0,172.87058600244106,143.82804049588657,-21.658032246078108
10.158037662506104,0,0,0,0.0,0.0,0.0,0.0,0.0,0.0,172.08456622038383,145.15868871507902,-22.444052028135303
10.175053596496582,0,0,0,0.0,0.0,0.0,0.0,0.0,0.0,171.29862142897522,146.4878268064475,-23.229996819543913
10.189486980438232,0,0,0,0.0,0.0,0.0,0.0,0.0,0.0,170.51255713953967,147.81684539978903,60.78950998328571
10.207815170288086,0,0,0,0.0,0.0,0.0,0.0,0.0,0.0,169.7270658857661,149.14745814576452,60.004018729512154
10.224161863327026,0,0,0,0.0,0.0,0.0,0.0,0.0,0.0,168.9424811397628,150.4775032797874,59.21943398350885
10.238667726516724,0,0,0,0.0,0.0,0.0,0.0,0.0,0.0,168.15698961050546,151.80709463330717,-76.56605754574848
10.25600790977478,0,0,0,0.0,0.0,0.0,0.0,0.0,0.0,167.37197706867445,153.1357296795059,-77.3510700875795
10.271353960037231,0,0,0,0.0,0.0,0.0,0.0,0.0,0.0,166.58799310868363,154.46532137963973,-78.13505404757032
10.287423133850098,0,0,0,0.0,0.0,0.0,0.0,0.0,0.0,165.8029930336813,155.79442217108948,-50.30959445660744
10.30314326286316,0,0,0,0.0,0.0,0.0,0.0,0.0,0.0,165.01697286081296,157.12507116176135,-51.095614629475804
10.320038557052612,0,0,0,0.0,0.0,0.0,0.0,0.0,0.0,164.23099758613407,158.45563152131726,-51.88158990415468
10.335566759109497,0,0,0,0.0,0.0,0.0,0.0,0.0,0.0,163.44550636207398,159.7847160264636,-81.27754079417996
10.351795196533203,0,0,0,0.0,0.0,0.0,0.0,0.0,0.0,162.66057413822986,161.11486668539658,-82.06247301802405
10.369997262954712,0,0,0,0.0,0.0,0.0,0.0,0.0,0.0,161.87567633849034,162.44505176843415,-82.84737081776359
10.388886451721191,0,0,0,0.0,0.0,0.0,0.0,0.0,0.0,161.09018435163225,163.7734535367887,6.367137195378291
10.407851457595825,0,0,0,0.0,0.0,0.0,0.0,0.0,0.0,160.30413396605516,165.10416216875387,5.5810868098012065
10.425827264785767,0,0,0,0.0,0.0,0.0,0.0,0.0,0.0,159.51864310310827,166.4346857346761,4.79559594685432
10.442549228668213,0,0,0,0.0,0.0,0.0,0.0,0.0,0.0,158.73445749384967,167.76492956247392,-52.29852213642451
10.465265274047852,0,0,0,0.0,0.0,0.0,0.0,0.0,0.0,157.95026359118734,169.09776638512704,-53.08271603908683
10.484318017959595,0,0,0,0.0,0.0,0.0,0.0,0.0,0.0,157.164771498544,170.4261438035071,-87.55827565770993
10.503714799880981,0,0,0,0.0,0.0,0.0,0.0,0.0,0.0,156.37927940622578,171.75634124258988,-88.34376775002816
10.523108720779419,0,0,0,0.0,0.0,0.0,0.0,0.0,0.0,155.5943573670717,173.08707181721,-89.12868978918225
10.541351556777954,0,0,0,0.0,0.0,0.0,0.0,0.0,0.0,154.81016748500403,174.4166622180125,-39.71845076351512
10.562114238739014,0,0,0,0.0,0.0,0.0,0.0,0.0,0.0,154.02467499815307,175.7475563314326,-40.503943250366106
10.582871913909912,0,0,0,0.0,0.0,0.0,0.0,0.0,0.0,153.2374055518077,177.0783322304684,43.51435839555376
10.601566553115845,0,0,0,0.0,0.0,0.0,0.0,0.0,0.0,152.45191344395002,178.4097482933259,42.728866287696064
10.621088981628418,0,0,0,0.0,0.0,0.0,0.0,0.0,0.0,151.66695595409826,179.74200955909214,41.9439087978443
10.638089895248413,0,0,0,0.0,0.0,0.0,0.0,0.0,0.0,150.8825511408326,181.0705141750341,-75.40554719249938
10.655573606491089,0,0,0,0.0,0.0,0.0,0.0,0.0,0.0,150.0987160561528,182.4001054408438,-76.18938227717916
10.673198461532593,0,0,0,0.0,0.0,0.0,0.0,0.0,0.0,149.31377270226673,183.7307931983563,-76.97432563106523
10.690807819366455,0,0,0,0.0,0.0,0.0,0.0,0.0,0.0,148.52702976255554,185.0597584835529,-67.58555772773316
10.710829973220825,0,0,0,0.0,0.0,0.0,0.0,0.0,0.0,147.74153751276233,186.38934911653675,-68.3710499775264
10.730788469314575,0,0,0,0.0,0.0,0.0,0.0,0.0,0.0,146.95604645736043,187.7199165974411,-50.27744777689438
10.746337652206421,0,0,0,0.0,0.0,0.0,0.0,0.0,0.0,146.17217266064242,189.0473510331053,-51.06132157361239
10.763671398162842,0,0,0,0.0,0.0,0.0,0.0,0.0,0.0,145.38726876042864,190.37694198604558,-51.846225473826166
10.782429456710815,0,0,0,0.0,0.0,0.0,0.0,0.0,0.0,144.6023506208513,191.70595939943806,-71.51023686943743
10.800816297531128,0,0,0,0.0,0.0,0.0,0.0,0.0,0.0,143.81623524788816,193.0361731827696,-72.29635224240059
10.820773124694824,0,0,0,0.0,0.0,0.0,0.0,0.0,0.0,143.0307437517903,194.36414958904925,-73.08184373849843
10.837992191314697,0,0,0,0.0,0.0,0.0,0.0,0.0,0.0,142.24635641550063,195.69539727571293,-102.47669074075331
10.855736255645752,0,0,0,0.0,0.0,0.0,0.0,0.0,0.0,141.46197741712305,197.0233195230995,-103.26106973913086
10.873455047607422,0,0,0,0.0,0.0,0.0,0.0,0.0,0.0,140.67648585106522,198.3501791216958,-104.0465613051887
10.891031742095947,0,0,0,0.0,0.0,0.0,0.0,0.0,0.0,139.89224321167444,199.67852014232665,-76.2203442786143
10.910989761352539,0,0,0,0.0,0.0,0.0,0.0,0.0,0.0,139.1080172035995,201.00557807029057,-77.00457028668924
10.931265115737915,0,0,0,0.0,0.0,0.0,0.0,0.0,0.0,138.3236113072954,202.33679787626352,-106.39943584895856
10.948922872543335,0,0,0,0.0,0.0,0.0,0.0,0.0,0.0,137.53876246644646,203.6657447707889,-107.1842846898075
10.969682693481445,0,0,0,0.0,0.0,0.0,0.0,0.0,0.0,136.7550050955705,204.99591396748255,-107.96804206068344
10.98811936378479,0,0,0,0.0,0.0,0.0,0.0,0.0,0.0,135.97068093157606,206.3231694977743,-58.55793731694308
11.006756067276001,0,0,0,0.0,0.0,0.0,0.0,0.0,0.0,135.186314989004,207.64994625058472,-59.34230325951515
11.025083541870117,0,0,0,0.0,0.0,0.0,0.0,0.0,0.0,134.40144439028936,208.9789152860653,-20.321602765964542
11.044931411743164,0,0,0,0.0,0.0,0.0,0.0,0.0,0.0,133.61841746174994,210.30542443206016,-21.104629694503984
11.06464171409607,0,0,0,0.0,0.0,0.0,0.0,0.0,0.0,132.83354663408286,211.6331509138784,-21.889500522171033
11.084428310394287,0,0,0,0.0,0.0,0.0,0.0,0.0,0.0,132.0505357934248,212.9627415848331,-52.741094184691576
11.104276180267334,0,0,0,0.0,0.0,0.0,0.0,0.0,0.0,131.26752370379998,214.28861207931843,-53.52410627431641
11.124107599258423,0,0,0,0.0,0.0,0.0,0.0,0.0,0.0,130.4848880262111,215.61820317894063,-54.306741951905266
11.143065452575684,0,0,0,0.0,0.0,0.0,0.0,0.0,0.0,129.70071781686855,216.94713231410515,-115.0223293393854
11.163233041763306,0,0,0,0.0,0.0,0.0,0.0,0.0,0.0,128.92198312563136,218.27549440711715,-115.8010640306226
11.18280577659607,0,0,0,0.0,0.0,0.0,0.0,0.0,0.0,128.13589235122433,219.60388776447866,-116.58715480502964
11.201905250549316,0,0,0,0.0,0.0,0.0,0.0,0.0,0.0,127.3491284289291,220.93665723987314,-117.37391872732486
11.22227668762207,0,0,0,0.0,0.0,0.0,0.0,0.0,0.0,126.56807370085306,222.26846693949798,-118.15497345540089
11.240096807479858,0,0,0,0.0,0.0,0.0,0.0,0.0,0.0,125.7900823224173,223.5911344923327,-28.93296483383665
11.258482933044434,0,0,0,0.0,0.0,0.0,0.0,0.0,0.0,125.0040634948412,224.9117597219264,-29.71898366141275
11.275388956069946,0,0,1.6,0.0,0.0,0.0272552490234375,0.0,0.0,0.0004642803745809943,34.22655698732065,136.24348047727554,-30.496490168933306
11.292539596557617,0,0,0,0.0,0.0,-0.005022430419921873,0.0,0.0,-0.00018687499432417097,123.4316083361287,227.5573104745944,-121.29143882012525
11.312689542770386,0,0,0,0.0,0.0,-0.005022430419921873,0.0,0.0,-0.00018687499432417097,122.66124494733285,228.8900529143969,-122.06180220892111
11.33284330368042,0,0,1.9,0.0,0.0,0.028564906120300295,0.0,0.0,0.00040686667718432546,31.86857182534118,140.22461598774623,-32.85447533091278
11.350581645965576,0,0,0,0.0,0.0,-0.008782744407653805,0.0,0.0,-0.0003272633227936694,121.07017998458316,231.54007848862952,-33.65286717167079
11.370002031326294,0,0,0,0.0,0.0,-0.008782744407653805,0.0,0.0,-0.0003272633227936694,120.2948441102283,232.88249802031186,-34.42820304602566
11.387080669403076,0,0,0.98,0.0,0.0,0.008696160316467288,0.0,0.0,-1.5516271411115674e-05,29.510467174074574,144.21153187783534,-125.21257998217939
11.405024766921997,0,0,0,0.0,0.0,-0.00985683441162109,0.0,0.0,-0.00036675465241160055,118.72497521296384,235.5340234392741,-125.99807194329009
11.423743486404419,0,0,0,0.0,0.0,-0.00985683441162109,0.0,0.0,-0.00036675465241160055,117.94445473363399,236.8691381915139,-126.77859242261994
11.441518783569336,0,0,0,0.0,0.0,-0.00985683441162109,0.0,0.0,-0.00036675465241160055,117.15771125514036,238.19247271298485,-37.5653359011136
11.461413145065308,0,0,0,0.0,0.0,-0.00985683441162109,0.0,0.0,-0.00036675465241160055,116.37284519854634,239.527072983954,-38.35020195770758
11.481605529785156,0,0,0,0.0,0.0,-0.00985683441162109,0.0,0.0,-0.00036675465241160055,115.5868248302724,240.8571934063961,-78.94179341824673
11.498621702194214,0,0,0,0.0,0.0,-0.00985683441162109,0.0,0.0,-0.00036675465241160055,114.80297891424513,242.18349336512267,-79.725639334274
11.516280174255371,0,0,0,0.0,0.0,-0.00985683441162109,0.0,0.0,-0.00036675465241160055,114.01748665216338,243.5137100879079,-80.51113159635575
11.537476778030396,0,0,0,0.0,0.0,-0.00985683441162109,0.0,0.0,-0.00036675465241160055,113.2345092362348,244.83512736161398,3.511462079980845
11.556757926940918,0,0,0,0.0,0.0,-0.00985683441162109,0.0,0.0,-0.00036675465241160055,112.45112476681159,246.16963705784102,2.728077610557648
11.57755446434021,0,0,0,0.0,0.0,-0.00985683441162109,0.0,0.0,-0.00036675465241160055,111.66371791661976,247.5011448346203,1.9406707603658049
11.592817306518555,0,0,0,0.0,0.0,-0.00985683441162109,0.0,0.0,-0.00036675465241160055,110.8826242563261,248.82759356290015,-133.84042289992786
11.61388087272644,0,0,0,0.0,0.0,-0.00985683441162109,0.0,0.0,-0.00036675465241160055,110.09275491927612,250.15655889319032,-134.63029223697785
11.633524179458618,0,0,0,0.0,0.0,-0.00985683441162109,0.0,0.0,-0.00036675465241160055,109.30560338509031,251.49057656891716,-135.41744377116365
11.651228189468384,0,0,0,0.0,0.0,-0.00985683441162109,0.0,0.0,-0.00036675465241160055,108.52249619556792,252.81718643598234,-136.20055096068603
11.670271396636963,0,0,0,0.0,0.0,-0.00985683441162109,0.0,0.0,-0.00036675465241160055,107.73493263143803,254.1452238158502,-136.98811452481593
11.686842203140259,0,0,0,0.0,0.0,-0.00985683441162109,0.0,0.0,-0.00036675465241160055,106.95055223846308,255.47425942450826,-137.77249491779088
11.704588413238525,0,0,0,0.0,0.0,-0.00985683441162109,0.0,0.0,-0.00036675465241160055,106.16446137386885,256.7978618789518,-138.5585857823851
11.724014282226562,0,0,0,0.0,0.0,-0.00985683441162109,0.0,0.0,-0.00036675465241160055,105.37840417915892,258.12632210520457,-139.34464297709502
11.74181079864502,0,0,0,0.0,0.0,-0.00985683441162109,0.0,0.0,-0.00036675465241160055,104.59404304349707,259.4593050439263,24.346884890488866
11.759873628616333,0,0,0,0.0,0.0,-0.00985683441162109,0.0,0.0,-0.00036675465241160055,103.80904460808951,260.78643351814753,23.56188645508132
11.775660276412964,0,0,0,0.0,0.0,-0.00985683441162109,0.0,0.0,-0.00036675465241160055,103.02560242783974,262.11346377159913,22.778444274831543
11.792119979858398,0,0,0,0.0,0.0,-0.00985683441162109,0.0,0.0,-0.00036675465241160055,102.24011062296866,263.44133372068376,13.073108686298127
11.810372829437256,0,0,0,0.0,0.0,-0.00985683441162109,0.0,0.0,-0.00036675465241160055,101.45564647996865,264.7688710493376,12.288644543298119
11.826833009719849,0,0,0,0.0,0.0,-0.00985683441162109,0.0,0.0,-0.00036675465241160055,100.67161036904551,266.09700798203824,11.504608432374994
11.842349529266357,0,0,0,0.0,0.0,-0.00985683441162109,0.0,0.0,-0.00036675465241160055,99.88437261999933,267.42950877496787,-130.80243106832813
11.86095118522644,0,0,0,0.0,0.0,-0.00985683441162109,0.0,0.0,-0.00036675465241160055,99.09941174017462,268.75910022952655,-131.58739194815286
11.877854824066162,0,0,0,0.0,0.0,-0.00985683441162109,0.0,0.0,-0.00036675465241160055,98.31344165125917,270.08773391380294,-132.37336203706832
11.893198728561401,0,0,0,0.0,0.0,-0.00985683441162109,0.0,0.0,-0.00036675465241160055,97.52736079744304,271.4179137752481,-57.19568635881092
11.912034511566162,0,0,0,0.0,0.0,-0.00985683441162109,0.0,0.0,-0.00036675465241160055,96.74298749614425,92.74638660302423,-57.9800596601097
11.929933786392212,0,0,0,0.0,0.0,-0.00985683441162109,0.0,0.0,-0.00036675465241160055,95.95749694125539,94.07511798652216,-58.76555021499857
11.943780183792114,0,0,0,0.0,0.0,-0.00985683441162109,0.0,0.0,-0.00036675465241160055,95.17200501336916,95.40588455362423,-59.551042142884796
11.962615728378296,0,0,0,0.0,0.0,-0.00985683441162109,0.0,0.0,-0.00036675465241160055,94.38651316961696,96.73663192275777,-60.336533986636994
11.981033563613892,0,0,0,0.0,0.0,-0.00985683441162109,0.0,0.0,-0.00036675465241160055,93.60191361714332,98.06622411891836,-122.51067387314541
11.995325088500977,0,0,0,0.0,0.0,-0.00985683441162109,0.0,0.0,-0.00036675465241160055,92.81754622062931,99.39581529766818,-123.29504126965944
12.013325452804565,0,0,0,0.0,0.0,-0.00985683441162109,0.0,0.0,-0.00036675465241160055,92.03205420516304,100.72540616497899,-124.08053328512571
12.032426118850708,0,0,0,0.0,0.0,-0.00985683441162109,0.0,0.0,-0.00036675465241160055,91.24656354760984,102.05322944355524,-124.86602394267888
12.04661250114441,0,0,0,0.0,0.0,-0.00985683441162109,0.0,0.0,-0.00036675465241160055,90.46053140239198,103.38336143917302,-125.65205608789674
12.063912630081177,0,0,0,0.0,0.0,-0.00985683441162109,0.0,0.0,-0.00036675465241160055,89.6738390783008,104.71415257492725,-126.43874841198792
12.083112955093384,0,0,0,0.0,0.0,-0.00985683441162109,0.0,0.0,-0.00036675465241160055,88.88787086076957,106.04278998578238,-20.835176295484388
12.098371744155884,0,0,0,0.0,0.0,-0.00985683441162109,0.0,0.0,-0.00036675465241160055,268.1029057711745,107.37185517583882,158.37985861492052
12.115376234054565,0,0,0,0.0,0.0,-0.00985683441162109,0.0,0.0,-0.00036675465241160055,267.31617275404056,108.69896423669047,157.59312559778658
12.1356041431427,0,0,0,0.0,0.0,-0.00985683441162109,0.0,0.0,-0.00036675465241160055,266.5341461063448,110.02682268597704,72.00552785782563
12.154072761535645,0,0,0,0.0,0.0,-0.00985683441162109,0.0,0.0,-0.00036675465241160055,265.7467716150603,111.35515848341115,71.21815336654117
12.173940420150757,0,0,0,0.0,0.0,-0.00985683441162109,0.0,0.0,-0.00036675465241160055,264.9607028087497,112.68590347876186,70.43208456023055
12.192097902297974,0,0,0,0.0,0.0,-0.00985683441162109,0.0,0.0,-0.00036675465241160055,264.1745488732472,114.01549379172425,33.487745184919675
12.213345050811768,0,0,0,0.0,0.0,-0.00985683441162109,0.0,0.0,-0.00036675465241160055,263.3859872647895,115.34999564369132,32.69918357646199
12.232965230941772,0,0,0,0.0,0.0,-0.00985683441162109,0.0,0.0,-0.00036675465241160055,262.6014564630008,116.67718707324617,107.87840930674679
12.248302936553955,0,0,0,0.0,0.0,-0.00985683441162109,0.0,0.0,-0.00036675465241160055,261.8181376925618,118.0024328812363,107.0950905363078
12.26572299003601,0,0,0,0.0,0.0,-0.00985683441162109,0.0,0.0,-0.00036675465241160055,261.03089008014103,119.3355352724904,106.30784292388705
12.284400224685669,0,0,0,0.0,0.0,-0.00985683441162109,0.0,0.0,-0.00036675465241160055,260.244863413795,120.66726747670153,44.132275923506256
12.301544904708862,0,0,0,0.0,0.0,-0.00985683441162109,0.0,0.0,-0.00036675465241160055,259.45880627920985,121.99403161605446,43.346218788921135
12.319824457168579,0,0,0,0.0,0.0,-0.00985683441162109,0.0,0.0,-0.00036675465241160055,258.6738434348257,123.32626592060447,42.561255944536924
12.336437702178955,0,0,0,0.0,0.0,-0.00985683441162109,0.0,0.0,-0.00036675465241160055,257.88992203366695,124.65795072355334,31.601823700334933
12.353167295455933,0,0,0,0.0,0.0,-0.00985683441162109,0.0,0.0,-0.00036675465241160055,257.1044304409515,125.9820480299886,30.816332107619502
12.370768785476685,0,0,0,0.0,0.0,-0.00985683441162109,0.0,0.0,-0.00036675465241160055,256.32039816334475,127.31261238046687,30.03229983001276
12.386288166046143,0,0,0,0.0,0.0,-0.00985683441162109,0.0,0.0,-0.00036675465241160055,255.53490685046924,128.64220395036847,39.422319360180495
12.402955770492554,0,0,0,0.0,0.0,-0.00985683441162109,0.0,0.0,-0.00036675465241160055,254.7483156528548,129.97069563553111,38.63572816256607
12.420481204986572,0,0,0,0.0,0.0,-0.00985683441162109,0.0,0.0,-0.00036675465241160055,253.96431803110266,131.30078521586626,37.85173054081392
12.43636965751648,0,0,0,0.0,0.0,-0.00985683441162109,0.0,0.0,-0.00036675465241160055,253.17777518921508,132.62932525675575,58.649156940695946
12.453203201293945,0,0,0,0.0,0.0,-0.00985683441162109,0.0,0.0,-0.00036675465241160055,252.39228351906252,133.95500856535136,57.86366527054338
12.47117567062378,0,0,0,0.0,0.0,-0.00985683441162109,0.0,0.0,-0.00036675465241160055,251.6048544177017,135.286538496422,57.07623616918255
12.486684322357178,0,0,0,0.0,0.0,-0.00985683441162109,0.0,0.0,-0.00036675465241160055,250.8188329220879,136.61719009825498,34.70624543179915
12.503605842590332,0,0,0,0.0,0.0,-0.00985683441162109,0.0,0.0,-0.00036675465241160055,250.03502435860875,137.94565919945234,33.922436868320005
12.521587371826172,0,0,0,0.0,0.0,-0.00985683441162109,0.0,0.0,-0.00036675465241160055,249.2460109445443,139.27676041777107,33.13342345425556
12.5416738986969,0,0,0,0.0,0.0,-0.00985683441162109,0.0,0.0,-0.00036675465241160055,248.45980902194103,140.60847712852473,138.73676186568707
12.560282707214355,0,0,0,0.0,0.0,-0.00985683441162109,0.0,0.0,-0.00036675465241160055,247.67534001268626,141.93500200420613,137.95229285643234
12.57716703414917,0,0,0,0.0,0.0,-0.00985683441162109,0.0,0.0,-0.00036675465241160055,246.88879190270342,143.2672352303075,137.1657447464495
12.59402871131897,0,0,0,0.0,0.0,-0.00985683441162109,0.0,0.0,-0.00036675465241160055,246.1032999710461,144.59682618142728,48.86980573679131
12.615098476409912,0,0,0,0.0,0.0,-0.00985683441162109,0.0,0.0,-0.00036675465241160055,245.31645327081057,145.92438536696287,48.08295903655576
12.63410997390747,0,0,0,0.0,0.0,-0.00985683441162109,0.0,0.0,-0.00036675465241160055,244.5314122945658,147.25487702034235,50.00279404604666
12.64849328994751,0,0,0,0.0,0.0,-0.00985683441162109,0.0,0.0,-0.00036675465241160055,243.74644618576318,148.58289270078615,49.21782793724404
12.665272235870361,0,0,0,0.0,0.0,-0.00985683441162109,0.0,0.0,-0.00036675465241160055,242.9615368645469,149.91131857965632,48.43291861602776
12.683930397033691,0,0,0,0.0,0.0,-0.00985683441162109,0.0,0.0,-0.00036675465241160055,242.17604613670864,151.2418113160742,132.4529989804547
12.698339939117432,0,0,0,0.0,0.0,-0.00985683441162109,0.0,0.0,-0.00036675465241160055,241.39111241359547,152.57363430827385,131.66806525734148
12.717139959335327,0,0,0,0.0,0.0,-0.00985683441162109,0.0,0.0,-0.00036675465241160055,240.6043624397798,153.90636912456006,130.88131528352585
12.736535787582397,0,0,0,0.0,0.0,-0.00985683441162109,0.0,0.0,-0.00036675465241160055,239.81887081208436,155.2354069728667,130.09582365583037
12.75433611869812,0,0,0,0.0,0.0,-0.00985683441162109,0.0,0.0,-0.00036675465241160055,239.033378656308,156.56499769986743,129.31033150005408
12.774744272232056,0,0,0,0.0,0.0,-0.00985683441162109,0.0,0.0,-0.00036675465241160055,238.2478868303059,157.8917081014133,128.52483967405192
12.79352617263794,0,0,0,0.0,0.0,-0.00985683441162109,0.0,0.0,-0.00036675465241160055,237.46170687579902,159.2226725084771,82.73865971954507
12.815099477767944,0,0,0,0.0,0.0,-0.00985683441162109,0.0,0.0,-0.00036675465241160055,236.67747813787386,160.54910414514887,81.95443098161991
12.835352420806885,0,0,0,0.0,0.0,-0.00985683441162109,0.0,0.0,-0.00036675465241160055,235.8925316746662,161.87924056471832,81.16948451841228
12.852664947509766,0,0,0,0.0,0.0,-0.00985683441162109,0.0,0.0,-0.00036675465241160055,235.10646005000586,163.20825182283505,80.38341289375194
12.871263265609741,0,0,0,0.0,0.0,-0.00985683441162109,0.0,0.0,-0.00036675465241160055,234.3198544549265,164.53840001499032,79.59680729867256
12.889081716537476,0,0,0,0.0,0.0,-0.00985683441162109,0.0,0.0,-0.00036675465241160055,233.53316925473692,165.86858749094995,28.615693190748146
12.908302545547485,0,0,0,0.0,0.0,-0.00985683441162109,0.0,0.0,-0.00036675465241160055,232.74709539794364,167.19701453718216,27.829619333954867
12.926698446273804,0,0,0,0.0,0.0,-0.00985683441162109,0.0,0.0,-0.00036675465241160055,231.96160402056975,168.52503187646624,27.04412795658098
12.943490743637085,0,0,0,0.0,0.0,-0.00985683441162109,0.0,0.0,-0.00036675465241160055,231.17722088290841,169.85185188074774,36.648602634389306
12.960563659667969,0,0,0,0.0,0.0,-0.00985683441162109,0.0,0.0,-0.00036675465241160055,230.39122019798873,171.18195296040295,35.86260194946962
12.976799011230469,0,0,0,0.0,0.0,-0.00985683441162109,0.0,0.0,-0.00036675465241160055,229.60470857555217,172.51511589435603,35.07609032703306
12.993135213851929,0,0,0,0.0,0.0,-0.00985683441162109,0.0,0.0,-0.00036675465241160055,228.81972450506274,173.84622901378498,74.09667734880878
13.00940752029419,0,0,0,0.0,0.0,-0.00985683441162109,0.0,0.0,-0.00036675465241160055,228.03370945783303,175.17424949141554,73.31066230157907
13.026152610778809,0,0,0,0.0,0.0,-0.00985683441162109,0.0,0.0,-0.00036675465241160055,227.24873145089,176.5028145557576,72.52568429463605
13.042667627334595,0,0,0,0.0,0.0,-0.00985683441162109,0.0,0.0,-0.00036675465241160055,226.4637275649377,177.83094489793072,31.935109316418533
13.058163404464722,0,0,0,0.0,0.0,-0.00985683441162109,0.0,0.0,-0.00036675465241160055,225.6765477632171,179.1627868625302,31.14792951469792
13.07819128036499,0,0,0,0.0,0.0,-0.00985683441162109,0.0,0.0,-0.00036675465241160055,224.88990722210795,180.493526665231,30.361288973588785
13.094463586807251,0,0,0,0.0,0.0,-0.00985683441162109,0.0,0.0,-0.00036675465241160055,224.1044156706143,181.8242073459035,-20.618631485639668
13.11186933517456,0,0,0,0.0,0.0,-0.00985683441162109,0.0,0.0,-0.00036675465241160055,223.31892466020525,183.15138586345748,-21.4041224960487
13.127421379089355,0,0,0,0.0,0.0,-0.00985683441162109,0.0,0.0,-0.00036675465241160055,222.53294066743135,184.48097764662003,-22.190106488822607
13.143133640289307,0,0,0,0.0,0.0,-0.00985683441162109,0.0,0.0,-0.00036675465241160055,221.74695414190052,185.81056940787133,-4.541144191431442
13.158990621566772,0,0,0,0.0,0.0,-0.00985683441162109,0.0,0.0,-0.00036675465241160055,220.9609316316808,187.14016085781367,-5.3271667016511515
13.175997257232666,0,0,0,0.0,0.0,-0.00985683441162109,0.0,0.0,-0.00036675465241160055,220.17446953233312,188.4692671732288,-6.113628800998839
13.191537141799927,0,0,0,0.0,0.0,-0.00985683441162109,0.0,0.0,-0.00036675465241160055,219.38848268363154,189.79836320730428,64.66543552737758
13.207391500473022,0,0,0,0.0,0.0,-0.00985683441162109,0.0,0.0,-0.00036675465241160055,218.60186872245768,191.1290766610158,63.878821566203726
13.22535514831543,0,0,0,0.0,0.0,-0.00985683441162109,0.0,0.0,-0.00036675465241160055,217.815891831925,192.45915435798165,63.092844675671046
13.240864992141724,0,0,0,0.0,0.0,-0.00985683441162109,0.0,0.0,-0.00036675465241160055,217.03040062925604,193.7892507404194,62.30735347300214
13.257011651992798,0,0,0,0.0,0.0,-0.00985683441162109,0.0,0.0,-0.00036675465241160055,216.24433699367762,195.11941368154203,61.521289837423694
13.275416851043701,0,0,0,0.0,0.0,-0.00985683441162109,0.0,0.0,-0.00036675465241160055,215.45833799225213,196.44951310683132,60.73529083599823
13.291768074035645,0,0,0,0.0,0.0,-0.00985683441162109,0.0,0.0,-0.00036675465241160055,214.67173850337412,197.7774425724147,104.94869134712019
13.309678316116333,0,0,0,0.0,0.0,-0.00985683441162109,0.0,0.0,-0.00036675465241160055,213.88624674512135,199.10589696185738,104.16319958886743
13.328057765960693,0,0,0,0.0,0.0,-0.00985683441162109,0.0,0.0,-0.00036675465241160055,213.100220928038,200.43602273883192,103.37717377178404
13.344974279403687,0,0,0,0.0,0.0,-0.00985683441162109,0.0,0.0,-0.00036675465241160055,212.313561170354,201.76736552294355,-3.7990263199347396
13.363738298416138,0,0,0,0.0,0.0,-0.00985683441162109,0.0,0.0,-0.00036675465241160055,211.52867944898296,203.0975666843496,-4.58390804130579
13.38357162475586,0,0,0,0.0,0.0,-0.00985683441162109,0.0,0.0,-0.00036675465241160055,210.74318865671128,204.42853179764973,-33.979858499542686
13.397925853729248,0,0,0,0.0,0.0,-0.00985683441162109,0.0,0.0,-0.00036675465241160055,209.95651914107808,205.75871153354035,-34.76652801517588
13.416826009750366,0,0,0,0.0,0.0,-0.00985683441162109,0.0,0.0,-0.00036675465241160055,209.17102698556178,207.0870744796246,-35.552020170692174
13.436456441879272,0,0,0,0.0,0.0,-0.00985683441162109,0.0,0.0,-0.00036675465241160055,208.38656447453747,208.4151229109553,31.04365237024308
13.452881813049316,0,0,0,0.0,0.0,-0.00985683441162109,0.0,0.0,-0.00036675465241160055,207.59952332047973,209.74316463967466,30.256611216185348
13.469471454620361,0,0,0,0.0,0.0,-0.00985683441162109,0.0,0.0,-0.00036675465241160055,206.81403151762422,211.0739026768745,29.47111941332986
13.487849473953247,0,0,0,0.0,0.0,-0.00985683441162109,0.0,0.0,-0.00036675465241160055,206.02966036756612,212.40461440959348,28.68674826327174
13.50558590888977,0,0,0,0.0,0.0,-0.00985683441162109,0.0,0.0,-0.00036675465241160055,205.24306019024382,213.73365138609063,27.90014808594944
13.523382425308228,0,0,0,0.0,0.0,-0.00985683441162109,0.0,0.0,-0.00036675465241160055,204.45854334926526,215.06373032383087,27.11563124497087
13.538902997970581,0,0,0,0.0,0.0,-0.00985683441162109,0.0,0.0,-0.00036675465241160055,203.67409427978615,216.39280072219753,48.95104712353219
13.555567741394043,0,0,0,0.0,0.0,-0.00985683441162109,0.0,0.0,-0.00036675465241160055,202.8886026930524,217.72294073115012,48.16555553679845
13.573126077651978,0,0,0,0.0,0.0,-0.00985683441162109,0.0,0.0,-0.00036675465241160055,202.10311160039484,219.0505641374806,47.380064444140885
13.58886170387268,0,0,0,0.0,0.0,-0.00985683441162109,0.0,0.0,-0.00036675465241160055,201.31868028977846,220.38015559633047,91.5956331335245
13.605820655822754,0,0,0,0.0,0.0,-0.00985683441162109,0.0,0.0,-0.00036675465241160055,200.53374343518698,221.70863726911884,90.81069627893302
13.623586416244507,0,0,0,0.0,0.0,-0.00985683441162109,0.0,0.0,-0.00036675465241160055,199.7492203927008,223.03871311969417,90.02617323644685
13.639097452163696,0,0,0,0.0,0.0,-0.00985683441162109,0.0,0.0,-0.00036675465241160055,198.96372902605495,224.3688281285193,118.71657087304675
13.655871391296387,0,0,0,0.0,0.0,-0.00985683441162109,0.0,0.0,-0.00036675465241160055,198.1787845421779,225.70006070478465,117.93162638916971
13.6733238697052,0,0,0,0.0,0.0,-0.00985683441162109,0.0,0.0,-0.00036675465241160055,197.3937809442625,227.03062744388188,117.14662279125429
13.688921928405762,0,0,0,0.0,0.0,-0.00985683441162109,0.0,0.0,-0.00036675465241160055,196.60828952020526,228.35968883104516,-48.11475763604871
13.705885887145996,0,0,0,0.0,0.0,-0.00985683441162109,0.0,0.0,-0.00036675465241160055,195.82334222981464,229.68819165104557,-48.89970492643931
13.723341464996338,0,0,0,0.0,0.0,-0.00985683441162109,0.0,0.0,-0.00036675465241160055,195.03785100107322,231.01879868510613,-49.68519615518075
13.739880323410034,0,0,0,0.0,0.0,-0.00985683441162109,0.0,0.0,-0.00036675465241160055,194.25235959782188,232.3489178520027,39.529312441567924
13.756700277328491,0,0,0,0.0,0.0,-0.00985683441162109,0.0,0.0,-0.00036675465241160055,193.46686767351167,233.67968360311693,38.74382051725772
13.775321960449219,0,0,0,0.0,0.0,-0.00985683441162109,0.0,0.0,-0.00036675465241160055,192.6823633245652,235.00779524971188,37.95931616831123
13.79108190536499,0,0,0,0.0,0.0,-0.00985683441162109,0.0,0.0,-0.00036675465241160055,191.89687194010426,236.337912282181,-52.82617521614971
13.807828903198242,0,0,0,0.0,0.0,-0.00985683441162109,0.0,0.0,-0.00036675465241160055,191.11252826658225,237.66578115526113,-53.610518889671695
13.82617449760437,0,0,0,0.0,0.0,-0.00985683441162109,0.0,0.0,-0.00036675465241160055,190.32654851260628,238.99537297509417,-54.396498643647675
13.84186053276062,0,0,0,0.0,0.0,-0.00985683441162109,0.0,0.0,-0.00036675465241160055,189.54258989261976,240.32292108585807,-26.569997597668987
13.85816240310669,0,0,0,0.0,0.0,-0.00985683441162109,0.0,0.0,-0.00036675465241160055,188.75769090380473,241.65191901130189,-27.354896586484017
13.87727975845337,0,0,0,0.0,0.0,-0.00985683441162109,0.0,0.0,-0.00036675465241160055,187.97164071363324,242.98206873965407,-28.14094677665551
13.895256042480469,0,0,0,0.0,0.0,-0.00985683441162109,0.0,0.0,-0.00036675465241160055,187.18727024603768,244.31222054334918,-57.53577691021627
13.913336038589478,0,0,0,0.0,0.0,-0.00985683441162109,0.0,0.0,-0.00036675465241160055,186.4012578367833,245.63972782545798,-58.32178931947068
13.929787874221802,0,0,0,0.0,0.0,-0.00985683441162109,0.0,0.0,-0.00036675465241160055,185.61730674970917,246.96675244390343,-59.10574040654477
13.946204423904419,0,0,0,0.0,0.0,-0.00985683441162109,0.0,0.0,-0.00036675465241160055,184.83117926911575,248.29507270644294,-31.281408221172995
13.96706509590149,0,0,0,0.0,0.0,-0.00985683441162109,0.0,0.0,-0.00036675465241160055,184.0456869307672,249.62529809249241,-32.06690055952154
13.98695707321167,0,0,0,0.0,0.0,-0.00985683441162109,0.0,0.0,-0.00036675465241160055,183.26070519411536,250.95488973066352,-61.46234196213857
14.003309965133667,0,0,0,0.0,0.0,-0.00985683441162109,0.0,0.0,-0.00036675465241160055,182.47469107881992,252.28552676340445,-62.248356077433996
14.019977331161499,0,0,0,0.0,0.0,-0.00985683441162109,0.0,0.0,-0.00036675465241160055,181.68861791346174,253.6162803637179,-63.03442924279217
14.03858470916748,0,0,0,0.0,0.0,-0.00985683441162109,0.0,0.0,-0.00036675465241160055,180.90365879878635,254.94374248640713,26.180611642532426
14.055608987808228,0,0,0,0.0,0.0,-0.00985683441162109,0.0,0.0,-0.00036675465241160055,180.11596635708017,256.27388397985766,25.392919200826242
14.07319188117981,0,0,0,0.0,0.0,-0.00985683441162109,0.0,0.0,-0.00036675465241160055,179.32940920752472,257.6029425637024,24.606362051270793
14.090184450149536,0,0,0,0.0,0.0,-0.00985683441162109,0.0,0.0,-0.00036675465241160055,178.54445251531368,258.9314644356497,89.37745057864316
14.107291221618652,0,0,0,0.0,0.0,-0.00985683441162109,0.0,0.0,-0.00036675465241160055,177.75839247219167,260.2599189897203,88.59139053552116
14.125431776046753,0,0,0,0.0,0.0,-0.00985683441162109,0.0,0.0,-0.00036675465241160055,176.97241844510225,261.589027845408,87.80541650843173
14.14087438583374,0,0,0,0.0,0.0,-0.00985683441162109,0.0,0.0,-0.00036675465241160055,176.1864109209873,262.91965186685184,21.463363764733344
14.157404899597168,0,0,0,0.0,0.0,-0.00985683441162109,0.0,0.0,-0.00036675465241160055,175.4009192311991,264.2498035819202,20.677872074945157
14.175405979156494,0,0,0,0.0,0.0,-0.00985683441162109,0.0,0.0,-0.00036675465241160055,174.61493999579946,265.5803717601233,19.891892839545505
14.191006183624268,0,0,0,0.0,0.0,-0.00985683441162109,0.0,0.0,-0.00036675465241160055,173.82998067432834,266.9115595623617,19.106933518074413
14.20803451538086,0,0,0,0.0,0.0,-0.00985683441162109,0.0,0.0,-0.00036675465241160055,173.04448885723374,268.24172573836046,18.32144170097982
14.22642469406128,0,0,0,0.0,0.0,-0.00985683441162109,0.0,0.0,-0.00036675465241160055,172.25899777062293,269.5723003406133,17.535950614369
14.242141485214233,0,0,0,0.0,0.0,-0.00985683441162109,0.0,0.0,-0.00036675465241160055,171.47350647556254,270.8982849010973,61.75045931930859
14.258667945861816,0,0,0,0.0,0.0,-0.00985683441162109,0.0,0.0,-0.00036675465241160055,170.68860121640537,272.227875866001,60.96555406015142
14.278050899505615,0,0,0,0.0,0.0,-0.00985683441162109,0.0,0.0,-0.00036675465241160055,169.90425199416606,93.55689568438524,60.181204837912105
14.296380996704102,0,0,0,0.0,0.0,-0.00985683441162109,0.0,0.0,-0.00036675465241160055,169.11816641303804,94.8858929860343,92.62683032476343
14.315376043319702,0,0,0,0.0,0.0,-0.00985683441162109,0.0,0.0,-0.00036675465241160055,168.332114095952,96.21380229895016,91.84077800767739
14.333295345306396,0,0,0,0.0,0.0,-0.00985683441162109,0.0,0.0,-0.00036675465241160055,167.5466229311238,97.5438943829908,91.0552868428492
14.349305629730225,0,0,0,0.0,0.0,-0.00985683441162109,0.0,0.0,-0.00036675465241160055,166.76113112033605,98.87405984259007,12.038083964082091
14.367835998535156,0,0,0,0.0,0.0,-0.00985683441162109,0.0,0.0,-0.00036675465241160055,165.97499201311066,100.20623694660344,11.25194485685671
14.388614416122437,0,0,0,0.0,0.0,-0.00985683441162109,0.0,0.0,-0.00036675465241160055,165.18834927197307,101.53812985120433,-12.15456283232129
14.407065629959106,0,0,0,0.0,0.0,-0.00985683441162109,0.0,0.0,-0.00036675465241160055,164.4022276234846,102.86646172749934,-12.940684480809779
14.427226066589355,0,0,0,0.0,0.0,-0.00985683441162109,0.0,0.0,-0.00036675465241160055,163.61845059571877,104.19548123774399,-13.724461508575587
14.445497751235962,0,0,0,0.0,0.0,-0.00985683441162109,0.0,0.0,-0.00036675465241160055,162.83237864788768,105.52449217268997,-81.89066850836625
14.464091300964355,0,0,0,0.0,0.0,-0.00985683441162109,0.0,0.0,-0.00036675465241160055,162.04688704392402,106.85408345150339,-82.67616011232991
14.481328248977661,0,0,0,0.0,0.0,-0.00985683441162109,0.0,0.0,-0.00036675465241160055,161.26194285546947,108.18312737241416,-83.46110430078447
14.498980283737183,0,0,0,0.0,0.0,-0.00985683441162109,0.0,0.0,-0.00036675465241160055,160.47645043454733,109.50885201111942,-84.24659672170664
14.519985914230347,0,0,0,0.0,0.0,-0.00985683441162109,0.0,0.0,-0.00036675465241160055,159.68966145886716,110.83714591821635,-85.0333856973868
14.54048776626587,0,0,0,0.0,0.0,-0.00985683441162109,0.0,0.0,-0.00036675465241160055,158.90358097331537,112.16673686660533,-85.81946618293858
14.559250593185425,0,0,0,0.0,0.0,-0.00985683441162109,0.0,0.0,-0.00036675465241160055,158.1174621506922,113.49632748333454,-86.60558500556176
14.578856229782104,0,0,0,0.0,0.0,-0.00985683441162109,0.0,0.0,-0.00036675465241160055,157.33144812558393,114.82644167236231,-87.39159903067001
14.59565258026123,0,0,0,0.0,0.0,-0.00985683441162109,0.0,0.0,-0.00036675465241160055,156.54656281482977,116.15360533071325,-88.17648434142419
14.615371704101562,0,0,0,0.0,0.0,-0.00985683441162109,0.0,0.0,-0.00036675465241160055,155.7621353764466,117.48160076882243,-88.96091177980736
14.632063627243042,0,0,0,0.0,0.0,-0.00985683441162109,0.0,0.0,-0.00036675465241160055,154.9766442044664,118.81019010830812,-89.74640295178757
14.648060083389282,0,0,0,0.0,0.0,-0.00985683441162109,0.0,0.0,-0.00036675465241160055,154.1899491565305,120.14038244396757,89.46690200027649
14.667352199554443,0,0,0,0.0,0.0,-0.00985683441162109,0.0,0.0,-0.00036675465241160055,153.40501812914744,121.4705342993616,88.68197097289345
14.68526029586792,0,0,0,0.0,0.0,-0.00985683441162109,0.0,0.0,-0.00036675465241160055,152.61856586257986,122.80060682643403,-63.49402162770889
14.700656414031982,0,0,0,0.0,0.0,-0.00985683441162109,0.0,0.0,-0.00036675465241160055,151.83249420034153,124.12961804697278,-64.28009328994722
14.719242572784424,0,0,0,0.0,0.0,-0.00985683441162109,0.0,0.0,-0.00036675465241160055,151.0463894394044,125.45737093573474,-65.06619805088434
14.73875379562378,0,0,0,0.0,0.0,-0.00985683441162109,0.0,0.0,-0.00036675465241160055,150.26044536197773,126.78560309483348,-4.462601794276225
14.753173351287842,0,0,0,0.0,0.0,-0.00985683441162109,0.0,0.0,-0.00036675465241160055,149.47392432581407,128.11570955856337,-5.249122830439887
14.769654512405396,0,0,0,0.0,0.0,-0.00985683441162109,0.0,0.0,-0.00036675465241160055,148.68784845484018,129.44646849988814,-6.035198701413776
14.78835678100586,0,0,0,0.0,0.0,-0.00985683441162109,0.0,0.0,-0.00036675465241160055,147.90281880066198,130.77698289707422,-46.62579944785716
14.803146362304688,0,0,0,0.0,0.0,-0.00985683441162109,0.0,0.0,-0.00036675465241160055,147.1157634119614,132.1081384727109,-47.41285483655773
14.819801330566406,0,0,0,0.0,0.0,-0.00985683441162109,0.0,0.0,-0.00036675465241160055,146.3296913889743,133.43656917069094,-48.19892685954483
14.838362455368042,0,0,0,0.0,0.0,-0.00985683441162109,0.0,0.0,-0.00036675465241160055,145.5442008747871,134.76488411488572,35.82115371853314
14.85199522972107,0,0,0,0.0,0.0,-0.00985683441162109,0.0,0.0,-0.00036675465241160055,144.75762763658838,136.097179779445,35.03458048033443
14.869327306747437,0,0,0,0.0,0.0,-0.00985683441162109,0.0,0.0,-0.00036675465241160055,143.9709716354155,137.42909903129708,34.247924479161554
14.887937784194946,0,0,0,0.0,0.0,-0.00985683441162109,0.0,0.0,-0.00036675465241160055,143.18464095409243,138.75869144962616,-11.538406202161525
14.901394367218018,0,0,0,0.0,0.0,-0.00985683441162109,0.0,0.0,-0.00036675465241160055,142.39803314401846,140.0866084514908,-12.3250140122355
14.919312000274658,0,0,0,0.0,0.0,-0.00985683441162109,0.0,0.0,-0.00036675465241160055,141.6125412462358,141.41678379297204,-13.110505910018162
14.937980890274048,0,0,0,0.0,0.0,-0.00985683441162109,0.0,0.0,-0.00036675465241160055,140.82789564237552,142.74595375048105,33.83115948002785
14.951510190963745,0,0,0,0.0,0.0,-0.00985683441162109,0.0,0.0,-0.00036675465241160055,140.04350559107172,144.07554502851423,33.04676942872405
14.96911334991455,0,0,0,0.0,0.0,-0.00985683441162109,0.0,0.0,-0.00036675465241160055,139.25801393769393,145.40736165693087,32.26127777534626
14.986958503723145,0,0,0,0.0,0.0,-0.00985683441162109,0.0,0.0,-0.00036675465241160055,138.4712394982511,146.73866588186561,-16.251807658002832
15.000605344772339,0,0,0,0.0,0.0,-0.00985683441162109,0.0,0.0,-0.00036675465241160055,137.68574774747546,148.06882452459115,-17.037299408778466
15.018836259841919,0,0,0,0.0,0.0,-0.00985683441162109,0.0,0.0,-0.00036675465241160055,136.90190076168548,149.39896402393993,-17.821146394568444
15.036341190338135,0,0,0,0.0,0.0,-0.00985683441162109,0.0,0.0,-0.00036675465241160055,136.11641030510472,150.72813724321895,-18.606636851149204
15.049741983413696,0,0,0,0.0,0.0,-0.00985683441162109,0.0,0.0,-0.00036675465241160055,135.33091849542225,152.05600553346332,-109.39212866083166
15.068129777908325,0,0,0,0.0,0.0,-0.00985683441162109,0.0,0.0,-0.00036675465241160055,134.54646860995533,153.38403488813097,-110.17657854629861
15.08483076095581,0,0,0,0.0,0.0,-0.00985683441162109,0.0,0.0,-0.00036675465241160055,133.76097768237995,154.71646591687147,-110.96206947387398
15.10004472732544,0,0,0,0.0,0.0,-0.00985683441162109,0.0,0.0,-0.00036675465241160055,132.97609725348227,156.04544495561453,43.809095316811806
15.1196870803833,0,0,0,0.0,0.0,-0.00985683441162109,0.0,0.0,-0.00036675465241160055,132.19121290285116,157.373212482521,43.0242109661807
15.139540672302246,0,0,0,0.0,0.0,-0.00985683441162109,0.0,0.0,-0.00036675465241160055,131.40572144771502,158.70280391016195,-63.122896800804114
15.156510829925537,0,0,0,0.0,0.0,-0.00985683441162109,0.0,0.0,-0.00036675465241160055,130.6217509266183,160.03087487033685,-63.90686732190085
15.172833442687988,0,0,0,0.0,0.0,-0.00985683441162109,0.0,0.0,-0.00036675465241160055,129.83625911778105,161.3587434519991,-64.69235913073808
15.191163301467896,0,0,0,0.0,0.0,-0.00985683441162109,0.0,0.0,-0.00036675465241160055,129.0501547025615,162.6901710148058,-115.67289245369244
15.210802793502808,0,0,0,0.0,0.0,-0.00985683441162109,0.0,0.0,-0.00036675465241160055,128.2658760558526,164.0179416352252,-116.45717110040137
15.230184555053711,0,0,0,0.0,0.0,-0.00985683441162109,0.0,0.0,-0.00036675465241160055,127.48141743189763,165.34443517295512,-117.24162972435633
15.246755361557007,0,0,0,0.0,0.0,-0.00985683441162109,0.0,0.0,-0.00036675465241160055,126.69697422269485,166.67193035879083,-58.98982946563265
15.263504981994629,0,0,0,0.0,0.0,-0.00985683441162109,0.0,0.0,-0.00036675465241160055,125.9114825158718,168.00152153474485,-59.775321172455705
15.281450510025024,0,0,0,0.0,0.0,-0.00985683441162109,0.0,0.0,-0.00036675465241160055,125.1265457794493,169.32944806373266,-60.5602579088782
15.299270153045654,0,0,0,0.0,0.0,-0.00985683441162109,0.0,0.0,-0.00036675465241160055,124.34105350442886,170.66092142575556,14.618006348174902
15.319432735443115,0,0,0,0.0,0.0,-0.00985683441162109,0.0,0.0,-0.00036675465241160055,123.55674353862288,171.98873936795613,13.833696382368942
15.338088989257812,0,0,0,0.0,0.0,-0.00985683441162109,0.0,0.0,-0.00036675465241160055,122.77125295980719,173.3178984579087,-14.426225822723893
15.351940393447876,0,0,0,0.0,0.0,-0.00985683441162109,0.0,0.0,-0.00036675465241160055,121.98632370495902,174.6463647304981,-15.211155077572073
15.369906187057495,0,0,0,0.0,0.0,-0.00985683441162109,0.0,0.0,-0.00036675465241160055,121.2002518473151,175.97653575142556,-15.997226935215963
15.388315916061401,0,0,0,0.0,0.0,-0.00985683441162109,0.0,0.0,-0.00036675465241160055,120.41433575046415,177.3074048758088,-34.30871140578981
15.401848077774048,0,0,0,0.0,0.0,-0.00985683441162109,0.0,0.0,-0.00036675465241160055,119.6277187361896,178.63755870314793,-35.09532842006435
15.419853448867798,0,0,0,0.0,0.0,-0.00985683441162109,0.0,0.0,-0.00036675465241160055,118.84222701636283,179.96884175884134,-35.88082013989113
15.437903642654419,0,0,0,0.0,0.0,-0.00985683441162109,0.0,0.0,-0.00036675465241160055,118.05715663081011,181.29843417743047,-36.66589052544384
15.451421022415161,0,0,0,0.0,0.0,-0.00985683441162109,0.0,0.0,-0.00036675465241160055,117.26995658675486,182.629733569292,-37.453090569499096
15.469570636749268,0,0,0,0.0,0.0,-0.00985683441162109,0.0,0.0,-0.00036675465241160055,116.48337891856694,183.96095411072685,-38.23966823768701
15.487007141113281,0,0,0,0.0,0.0,-0.00985683441162109,0.0,0.0,-0.00036675465241160055,115.69788831601946,185.2901104574857,-39.025158840234496
15.500905752182007,0,0,0,0.0,0.0,-0.00985683441162109,0.0,0.0,-0.00036675465241160055,114.91126122950593,186.61970158812179,-13.246734749670054
15.519197225570679,0,0,0,0.0,0.0,-0.00985683441162109,0.0,0.0,-0.00036675465241160055,114.12523806542909,187.94876130682204,-14.032757913746877
15.536116600036621,0,0,0,0.0,0.0,-0.00985683441162109,0.0,0.0,-0.00036675465241160055,113.33930339001697,189.2783535166365,-14.818692589159014
15.550324440002441,0,0,0,0.0,0.0,-0.00985683441162109,0.0,0.0,-0.00036675465241160055,112.55269094042725,190.60962585241606,-132.1703562158267
15.568263292312622,0,0,0,0.0,0.0,-0.00985683441162109,0.0,0.0,-0.00036675465241160055,111.76670901444311,191.94069018620792,-132.95633814181085
15.584007263183594,0,0,0,0.0,0.0,-0.00985683441162109,0.0,0.0,-0.00036675465241160055,110.98170835598137,193.27077241052325,-133.7413388002726
15.599658966064453,0,0,0,0.0,0.0,-0.00985683441162109,0.0,0.0,-0.00036675465241160055,110.19621676047012,194.60091341652668,-44.52683039578383
15.617278337478638,0,0,0,0.0,0.0,-0.00985683441162109,0.0,0.0,-0.00036675465241160055,109.41120438850703,195.92954811850328,-45.311842767746924
15.632589101791382,0,0,0,0.0,0.0,-0.00985683441162109,0.0,0.0,-0.00036675465241160055,108.62669457986007,197.25815865009952,-46.09635257639388
15.648273944854736,0,0,0,0.0,0.0,-0.00985683441162109,0.0,0.0,-0.00036675465241160055,107.84025109844,198.58965563223754,18.67324916176949
15.663562059402466,0,0,0,0.0,0.0,-0.00985683441162109,0.0,0.0,-0.00036675465241160055,107.05475957633473,199.91924699290934,17.887757639664216
15.68086051940918,0,0,0,0.0,0.0,-0.00985683441162109,0.0,0.0,-0.00036675465241160055,106.26876964623746,201.24833994558918,17.101767709566957
15.697108507156372,0,0,0,0.0,0.0,-0.00985683441162109,0.0,0.0,-0.00036675465241160055,105.4832780097645,202.57626795408316,-49.23976914648945
15.714807510375977,0,0,0,0.0,0.0,-0.00985683441162109,0.0,0.0,-0.00036675465241160055,104.69667198066591,203.90808791307782,-50.02637517558804
15.732587337493896,0,1.29,0,0.0,0.02246633291244507,-0.00985683441162109,0.0,0.0003912683058393896,-0.00036675465241160055,58.91118043294332,205.23659076301058,-50.81186672331066
15.750070095062256,0,0,0,0.0,-0.0017118787765502928,-0.00985683441162109,0.0,-6.189907437601503e-05,-0.00036675465241160055,103.12510281083483,206.56735316115657,-112.98748467945391
15.768763780593872,0,0,0,0.0,-0.0017118787765502928,-0.00985683441162109,0.0,-6.189907437601503e-05,-0.00036675465241160055,102.33961128859953,207.8958618778318,-113.77297620168923
15.78670620918274,0,0,0,0.0,-0.0017118787765502928,-0.00985683441162109,0.0,-6.189907437601503e-05,-0.00036675465241160055,101.55357007205346,209.2254531659429,-26.604425907122504
15.803816556930542,0,0,0,0.0,-0.0017118787765502928,-0.00985683441162109,0.0,-6.189907437601503e-05,-0.00036675465241160055,100.76750364067215,210.5538949987607,-27.390492338503805
15.822162628173828,0,0,0,0.0,-0.0017118787765502928,-0.00985683441162109,0.0,-6.189907437601503e-05,-0.00036675465241160055,99.98140480202719,211.88530602481882,-28.176591177148765
15.841532230377197,0,0,0,0.0,-0.0017118787765502928,-0.00985683441162109,0.0,-6.189907437601503e-05,-0.00036675465241160055,99.19440892982541,213.21640242920535,-78.14850317449209
15.857640027999878,0,0,0,0.0,-0.0017118787765502928,-0.00985683441162109,0.0,-6.189907437601503e-05,-0.00036675465241160055,98.40891769282662,214.54548543874745,-78.93399441146776
15.873878479003906,0,0,0,0.0,-0.0017118787765502928,-0.00985683441162109,0.0,-6.189907437601503e-05,-0.00036675465241160055,97.62342588320918,215.87507651190708,-79.7194862210852
15.892287969589233,0,0,0,0.0,-0.0017118787765502928,-0.00985683441162109,0.0,-6.189907437601503e-05,-0.00036675465241160055,96.83738508002106,217.2052170156923,-57.88566207623289
15.90977144241333,0,0,0,0.0,-0.0017118787765502928,-0.00985683441162109,0.0,-6.189907437601503e-05,-0.00036675465241160055,96.05189352657683,218.53535324323713,-58.67115362967712
15.927183628082275,0,0,0,0.0,-0.0017118787765502928,-0.00985683441162109,0.0,-6.189907437601503e-05,-0.00036675465241160055,95.26690586670426,219.8634343357877,-59.45614128954969
15.943318128585815,0,0,0,0.0,-0.0017118787765502928,-0.00985683441162109,0.0,-6.189907437601503e-05,-0.00036675465241160055,94.4819182806873,221.19352963254784,29.758871124433313
15.959375858306885,0,0,0,0.0,-0.0017118787765502928,-0.00985683441162109,0.0,-6.189907437601503e-05,-0.00036675465241160055,93.69592832804322,222.52461776856006,28.972881171789226
15.975377798080444,0,0,0,0.0,-0.0017118787765502928,-0.00985683441162109,0.0,-6.189907437601503e-05,-0.00036675465241160055,92.91150574107867,223.85420918917902,28.1884585848247
15.992414951324463,0,0,0,0.0,-0.0017118787765502928,-0.00985683441162109,0.0,-6.189907437601503e-05,-0.00036675465241160055,92.12699941892522,225.18330859024292,-134.16109891440672
16.008179664611816,0,0,0,0.0,-0.0017118787765502928,-0.00985683441162109,0.0,-6.189907437601503e-05,-0.00036675465241160055,91.34150842405563,226.51338136842446,-134.94658990927633
16.023661851882935,0,0,0,0.0,-0.0017118787765502928,-0.00985683441162109,0.0,-6.189907437601503e-05,-0.00036675465241160055,90.55769350886035,227.84185473498306,-135.7304048244716
16.04146122932434,0,0,0,0.0,-0.0017118787765502928,-0.00985683441162109,0.0,-6.189907437601503e-05,-0.00036675465241160055,89.77353528898075,229.17144694349716,-154.9495118672732
16.055691480636597,0,0,0,0.0,-0.0017118787765502928,-0.00985683441162109,0.0,-6.189907437601503e-05,-0.00036675465241160055,88.98911586211457,230.5005023256967,-155.73393129413938
16.072901010513306,0,0,0,0.0,-0.0017118787765502928,-0.00985683441162109,0.0,-6.189907437601503e-05,-0.00036675465241160055,268.204196023858,231.8318092727574,23.48114886760402
16.091202974319458,0,0,0,0.0,-0.0017118787765502928,-0.00985683441162109,0.0,-6.189907437601503e-05,-0.00036675465241160055,267.4196153132855,233.1604913277268,22.69656815703152
16.10571002960205,0,0,0,0.0,-0.0017118787765502928,-0.00985683441162109,0.0,-6.189907437601503e-05,-0.00036675465241160055,266.63412392713406,234.4885056407482,21.9110767708801
16.122630834579468,0,0,0,0.0,-0.0017118787765502928,-0.00985683441162109,0.0,-6.189907437601503e-05,-0.00036675465241160055,265.84921405200066,235.8175146441852,21.126166895746678
16.14120078086853,0,0,0,0.0,-0.0017118787765502928,-0.00985683441162109,0.0,-6.189907437601503e-05,-0.00036675465241160055,265.0632982482581,237.14625642917807,155.3402510920041
16.154808044433594,0,0,0,0.0,-0.0017118787765502928,-0.00985683441162109,0.0,-6.189907437601503e-05,-0.00036675465241160055,264.27943887105005,238.47421559696897,154.55639171479606
16.17220973968506,0,0,0,0.0,-0.0017118787765502928,-0.00985683441162109,0.0,-6.189907437601503e-05,-0.00036675465241160055,263.4945281096492,239.80380661031154,153.7714809533952
16.190871238708496,0,0,0,0.0,-0.0017118787765502928,-0.00985683441162109,0.0,-6.189907437601503e-05,-0.00036675465241160055,262.7086391215645,241.13260179463384,68.1800208730453
16.203585386276245,0,0,0,0.0,-0.0017118787765502928,-0.00985683441162109,0.0,-6.189907437601503e-05,-0.00036675465241160055,261.9231474173422,242.46331732540534,67.394529168823
16.221554279327393,0,0,0,0.0,-0.0017118787765502928,-0.00985683441162109,0.0,-6.189907437601503e-05,-0.00036675465241160055,261.13820373849137,243.7956481325154,66.60958548997223
16.239182233810425,0,0,0,0.0,-0.0017118787765502928,-0.00985683441162109,0.0,-6.189907437601503e-05,-0.00036675465241160055,260.35355254140535,245.12398166020452,65.82493429288618
16.25252342224121,0,0,0,0.0,-0.0017118787765502928,-0.00985683441162109,0.0,-6.189907437601503e-05,-0.00036675465241160055,259.56863080505934,246.4530027336938,14.84558364880536
16.27079677581787,0,0,0,0.0,-0.0017118787765502928,-0.00985683441162109,0.0,-6.189907437601503e-05,-0.00036675465241160055,258.7831389232713,247.7808461637509,14.060091767017298
16.289716005325317,0,0,0,0.0,-0.0017118787765502928,-0.00985683441162109,0.0,-6.189907437601503e-05,-0.00036675465241160055,257.9986543063945,249.1094312827739,41.88606681610571
16.30570673942566,0,0,0,0.0,-0.0017118787765502928,-0.00985683441162109,0.0,-6.189907437601503e-05,-0.00036675465241160055,257.21373372219614,250.4401647801141,41.101146231907364
16.324029684066772,0,0,0,0.0,-0.0017118787765502928,-0.00985683441162109,0.0,-6.189907437601503e-05,-0.00036675465241160055,256.42824171947353,251.76915927844468,40.31565422918476
16.34311294555664,0,0,0,0.0,-0.0017118787765502928,-0.00985683441162109,0.0,-6.189907437601503e-05,-0.00036675465241160055,255.64275038410162,253.09875082584986,10.919703227847691
16.359776496887207,0,0,0,0.0,-0.0017118787765502928,-0.00985683441162109,0.0,-6.189907437601503e-05,-0.00036675465241160055,254.85725820231787,254.42710772559747,10.13421104606391
16.37958312034607,0,0,0,0.0,-0.0017118787765502928,-0.00985683441162109,0.0,-6.189907437601503e-05,-0.00036675465241160055,254.07074068320645,255.75669933223458,9.347693526952526
16.395973205566406,0,0,0,0.0,-0.0017118787765502928,-0.00985683441162109,0.0,-6.189907437601503e-05,-0.00036675465241160055,253.28524910681068,257.0879332234166,125.12725312763473
16.41345191001892,0,0,0,0.0,-0.0017118787765502928,-0.00985683441162109,0.0,-6.189907437601503e-05,-0.00036675465241160055,252.4991598054611,258.4175240955388,124.34116382628508
16.432554960250854,0,0,0,0.0,-0.0017118787765502928,-0.00985683441162109,0.0,-6.189907437601503e-05,-0.00036675465241160055,251.7136685494769,259.74660491052595,123.55567257030089
16.448900938034058,0,0,0,0.0,-0.0017118787765502928,-0.00985683441162109,0.0,-6.189907437601503e-05,-0.00036675465241160055,250.92817733705513,261.07569076096456,141.20513018080118
16.46510100364685,0,0,0,0.0,-0.0017118787765502928,-0.00985683441162109,0.0,-6.189907437601503e-05,-0.00036675465241160055,250.14211529478376,262.40414133403135,140.41906813852984
16.483681201934814,0,0,0,0.0,-0.0017118787765502928,-0.00985683441162109,0.0,-6.189907437601503e-05,-0.00036675465241160055,249.35549973222868,263.73541830544934,139.63245257597475
16.501243352890015,0,0,0,0.0,-0.0017118787765502928,-0.00985683441162109,0.0,-6.189907437601503e-05,-0.00036675465241160055,248.57000823372516,265.06554829219425,93.8469610774712
16.518496990203857,0,0,0,0.0,-0.0017118787765502928,-0.00985683441162109,0.0,-6.189907437601503e-05,-0.00036675465241160055,247.7850199460798,266.3946370887477,93.06197278982586
16.53457760810852,0,0,0,0.0,-0.0017118787765502928,-0.00985683441162109,0.0,-6.189907437601503e-05,-0.00036675465241160055,246.99952886161464,267.72521120140783,92.27648170536068
16.55023765563965,0,0,0,0.0,-0.0017118787765502928,-0.00985683441162109,0.0,-6.189907437601503e-05,-0.00036675465241160055,246.21356190670406,269.05623114004703,1.490514750450103
16.565484523773193,0,0,0,0.0,-0.0017118787765502928,-0.00985683441162109,0.0,-6.189907437601503e-05,-0.00036675465241160055,245.42807038063268,270.3852807352352,0.7050232243787207
16.582862854003906,0,0,0,0.0,-0.0017118787765502928,-0.00985683441162109,0.0,-6.189907437601503e-05,-0.00036675465241160055,244.6415925817624,271.713885819142,-0.08145457449154492
16.598655700683594,0,0,0,0.0,-0.0017118787765502928,-0.00985683441162109,0.0,-6.189907437601503e-05,-0.00036675465241160055,243.85560543995246,93.0444696049671,89.13255828369853
16.614518880844116,0,0,0,0.0,-0.0017118787765502928,-0.00985683441162109,0.0,-6.189907437601503e-05,-0.00036675465241160055,243.06955291994524,94.37349996773696,88.34650576369131
16.63244867324829,0,0,0,0.0,-0.0017118787765502928,-0.00985683441162109,0.0,-6.189907437601503e-05,-0.00036675465241160055,242.28406191259208,95.70116256001879,87.56101475633812
16.647911548614502,0,0,0,0.0,-0.0017118787765502928,-0.00985683441162109,0.0,-6.189907437601503e-05,-0.00036675465241160055,241.49705415950731,97.03024871859695,25.38446666921857
16.664063930511475,0,0,0,0.0,-0.0017118787765502928,-0.00985683441162109,0.0,-6.189907437601503e-05,-0.00036675465241160055,240.71099554434917,98.35983985619,24.598408054060428
16.682215690612793,0,0,0,0.0,-0.0017118787765502928,-0.00985683441162109,0.0,-6.189907437601503e-05,-0.00036675465241160055,239.92599045455026,99.68991764916815,23.813402964261513
16.697761297225952,0,0,0,0.0,-0.0017118787765502928,-0.00985683441162109,0.0,-6.189907437601503e-05,-0.00036675465241160055,239.14101303106665,101.01899539027522,-5.582034125187278
16.714298963546753,0,0,0,0.0,-0.0017118787765502928,-0.00985683441162109,0.0,-6.189907437601503e-05,-0.00036675465241160055,238.35552130304754,102.34689183597061,-6.367525853206388
16.732297658920288,0,0,0,0.0,-0.0017118787765502928,-0.00985683441162109,0.0,-6.189907437601503e-05,-0.00036675465241160055,237.5691004585558,103.68110966789894,-7.153946697698132
16.76203417778015,0,0,0,0.0,-0.0017118787765502928,-0.00985683441162109,0.0,-6.189907437601503e-05,-0.00036675465241160055,236.7825400164408,105.00856312905931,-7.94050713981315
16.77912163734436,0,0,0,0.0,-0.0017118787765502928,-0.00985683441162109,0.0,-6.189907437601503e-05,-0.00036675465241160055,235.99704883620325,106.33664843596083,-8.725998320050707
16.795172691345215,0,0,0,0.0,-0.0017118787765502928,-0.00985683441162109,0.0,-6.189907437601503e-05,-0.00036675465241160055,235.2104946649176,107.66464577949465,80.48744750866365
16.812171459197998,0,0,0,0.0,-0.0017118787765502928,-0.00985683441162109,0.0,-6.189907437601503e-05,-0.00036675465241160055,234.42395040124296,108.9921315272506,79.70090324498904
16.8289954662323,0,0,0,0.0,-0.0017118787765502928,-0.00985683441162109,0.0,-6.189907437601503e-05,-0.00036675465241160055,233.63845923992582,110.32072332118977,78.91541208367187
16.844995498657227,0,0,0,0.0,-0.0017118787765502928,-0.00985683441162109,0.0,-6.189907437601503e-05,-0.00036675465241160055,232.8524589533329,111.65082400941017,78.12941179707894
16.86141562461853,0,0,0,0.0,-0.0017118787765502928,-0.00985683441162109,0.0,-6.189907437601503e-05,-0.00036675465241160055,232.065827257236,112.98041512002052,77.34278010098205
16.880211353302002,0,0,0,0.0,-0.0017118787765502928,-0.00985683441162109,0.0,-6.189907437601503e-05,-0.00036675465241160055,231.2798020564318,114.310540291379,76.55675490017785
16.896755695343018,0,0,0,0.0,-0.0017118787765502928,-0.00985683441162109,0.0,-6.189907437601503e-05,-0.00036675465241160055,230.4954070498564,115.64122816758065,120.77235989360247
16.914403915405273,0,0,0,0.0,-0.0017118787765502928,-0.00985683441162109,0.0,-6.189907437601503e-05,-0.00036675465241160055,229.70872228368603,116.97320457453063,119.98567512743205
16.93347144126892,0,0,0,0.0,-0.0017118787765502928,-0.00985683441162109,0.0,-6.189907437601503e-05,-0.00036675465241160055,228.92323084512964,118.30492295089549,119.20018368887565
16.950523138046265,0,0,0,0.0,-0.0017118787765502928,-0.00985683441162109,0.0,-6.189907437601503e-05,-0.00036675465241160055,228.13927811880166,119.63374191489166,-16.58376903745227
16.98123288154602,0,0,0,0.0,-0.0017118787765502928,-0.00985683441162109,0.0,-6.189907437601503e-05,-0.00036675465241160055,227.35378495348178,120.9618724212378,-17.36926220277215
16.99866795539856,0,0,0,0.0,-0.0017118787765502928,-0.00985683441162109,0.0,-6.189907437601503e-05,-0.00036675465241160055,226.56884532191899,122.29035972130978,-18.15420183433497
17.016234636306763,0,0,0,0.0,-0.0017118787765502928,-0.00985683441162109,0.0,-6.189907437601503e-05,-0.00036675465241160055,225.78419762685155,123.62079490901942,-18.938849529402404
17.043314218521118,0,0,0,0.0,-0.0017118787765502928,-0.00985683441162109,0.0,-6.189907437601503e-05,-0.00036675465241160055,224.99870659804228,124.94941720403297,-19.72434055821168
17.05880832672119,0,0,0,0.0,-0.0017118787765502928,-0.00985683441162109,0.0,-6.189907437601503e-05,-0.00036675465241160055,224.21321504147716,126.28064429776441,-20.5098321147768
17.076296091079712,0,0,0,0.0,-0.0017118787765502928,-0.00985683441162109,0.0,-6.189907437601503e-05,-0.00036675465241160055,223.42715966554226,127.61079912215439,-21.295887490711692
17.09416151046753,0,0,0,0.0,-0.0017118787765502928,-0.00985683441162109,0.0,-6.189907437601503e-05,-0.00036675465241160055,222.64118586392084,128.94087378365424,-22.081861292333087
17.109578371047974,0,0,0,0.0,-0.0017118787765502928,-0.00985683441162109,0.0,-6.189907437601503e-05,-0.00036675465241160055,221.85569474668628,130.27195028599695,-22.867352409567644
17.125502347946167,0,0,0,0.0,-0.0017118787765502928,-0.00985683441162109,0.0,-6.189907437601503e-05,-0.00036675465241160055,221.06962613578122,131.60211811636162,-23.653421020472706
17.143866300582886,0,0,0,0.0,-0.0017118787765502928,-0.00985683441162109,0.0,-6.189907437601503e-05,-0.00036675465241160055,220.28368823617708,132.9330518945289,25.755069987657947
17.15818452835083,0,0,0,0.0,-0.0017118787765502928,-0.00985683441162109,0.0,-6.189907437601503e-05,-0.00036675465241160055,219.49925053118324,134.26264338140177,24.9706322826641
17.175100803375244,0,0,0,0.0,-0.0017118787765502928,-0.00985683441162109,0.0,-6.189907437601503e-05,-0.00036675465241160055,218.714912762446,135.59165739774343,24.186294513926867
17.193541526794434,0,0,0,0.0,-0.0017118787765502928,-0.00985683441162109,0.0,-6.189907437601503e-05,-0.00036675465241160055,217.92942202459488,136.9217009807983,108.20637486834096
17.20801544189453,0,0,0,0.0,-0.0017118787765502928,-0.00985683441162109,0.0,-6.189907437601503e-05,-0.00036675465241160055,217.1439306479362,138.251817127,107.42088349168228
